#time,accel_x,accel_y,accel_z
2625.079904,296.082377,444.123565,-72932.291410
2625.082484,-296.082377,-148.041188,-73545.167808
2625.085064,-1036.288319,0.000000,-74770.920605
2625.087645,1332.370696,2368.659014,-73238.729609
2625.090225,2516.700203,1332.370696,-73545.167808
2625.092805,1332.370696,1036.288319,-74004.825107
2625.095385,1036.288319,-296.082377,-73851.606007
2625.097965,148.041188,592.164754,-72779.072310
2625.100545,-740.205942,1332.370696,-74004.825107
2625.103126,-296.082377,444.123565,-74464.482406
2625.105706,-296.082377,592.164754,-73851.606007
2625.108286,1332.370696,1924.535449,-72625.853210
2625.110866,1036.288319,-148.041188,-75077.358804
2625.113446,-444.123565,148.041188,-73545.167808
2625.116026,0.000000,1628.453072,-72779.072310
2625.118607,1184.329507,148.041188,-73391.948708
2625.121187,0.000000,1776.494261,-73238.729609
2625.123767,1776.494261,1332.370696,-72779.072310
2625.126347,1480.411884,1924.535449,-73391.948708
2625.128738,148.041188,-444.123565,-74924.139704
2625.131129,740.205942,0.000000,-74311.263306
2625.133520,-888.247130,1332.370696,-72779.072310
2625.135910,0.000000,0.000000,-73851.606007
2625.138301,1480.411884,1628.453072,-73851.606007
2625.140692,1036.288319,740.205942,-73391.948708
2625.143083,1332.370696,1184.329507,-73391.948708
2625.145474,296.082377,-1628.453072,-74464.482406
2625.147865,1036.288319,-296.082377,-73851.606007
2625.150256,-4293.194464,1036.288319,-73391.948708
2625.152646,3849.070898,-592.164754,-74004.825107
2625.155037,740.205942,2220.617826,-72932.291410
2625.157428,888.247130,-888.247130,-72779.072310
2625.159819,9030.512492,888.247130,-72932.291410
2625.162210,10510.924376,-7698.141797,-74924.139704
2625.164601,10510.924376,-8734.430116,-74158.044206
2625.166991,7698.141797,-19541.436869,-72166.195912
2625.169382,-4885.359217,-13027.624579,-72166.195912
2625.171773,-14952.160028,1332.370696,-75383.797003
2625.174164,-3108.864956,10066.800811,-78141.740796
2625.176555,9178.553681,13175.665768,-73851.606007
2625.178946,9918.759623,23834.631332,-67569.622924
2625.181337,-3108.864956,8142.265362,-72166.195912
2625.183727,-11547.212695,-1924.535449,-76149.892501
2625.186118,-5329.482782,-1036.288319,-74617.701505
2625.188509,3404.947333,-6365.771101,-74770.920605
2625.190900,10955.047942,-11695.253884,-74311.263306
2625.193291,6365.771101,-5033.400406,-71400.100414
2625.195682,-4293.194464,9770.718434,-69561.471218
2625.198073,-9474.636058,14508.036463,-76303.111601
2625.200463,-5477.523971,15988.448347,-78448.178995
2625.202854,1332.370696,-296.082377,-75077.358804
2625.205245,6217.729913,-8290.306550,-68335.718422
2625.207636,1480.411884,4441.235652,-71706.538613
2625.210027,-2960.823768,5181.441594,-80440.027290
2625.212418,2664.741391,2072.576638,-78141.740796
2625.214808,-2368.659014,-296.082377,-67722.842023
2625.217199,-2812.782580,-6217.729913,-66190.651027
2625.219590,148.041188,6069.688724,-74311.263306
2625.221981,-6069.688724,3552.988522,-81206.122788
2625.224428,-5329.482782,13471.748144,-74617.701505
2625.226875,-4441.235652,2664.741391,-70174.347617
2625.229322,-5625.565159,444.123565,-71400.100414
2625.231769,-444.123565,-888.247130,-73085.510509
2625.234216,5329.482782,2812.782580,-74770.920605
2625.236663,4293.194464,1628.453072,-77375.645298
2625.239110,-3997.112087,-2072.576638,-76915.987999
2625.241557,-10955.047942,3552.988522,-71093.662214
2625.244004,-7994.224174,6365.771101,-69408.252119
2625.246451,3997.112087,3552.988522,-73085.510509
2625.248898,3256.906145,11843.295072,-75537.016103
2625.251345,-592.164754,11103.089130,-76149.892501
2625.253792,4145.153275,-6217.729913,-76303.111601
2625.256239,2664.741391,-8290.306550,-69867.909418
2625.258686,-4885.359217,-4737.318029,-68182.499322
2625.261132,2960.823768,-5033.400406,-75843.454302
2625.263579,9326.594869,-1332.370696,-78907.836294
2625.266026,1184.329507,11399.171507,-71093.662214
2625.268473,2072.576638,4441.235652,-72472.634111
2625.270920,2516.700203,-11695.253884,-76149.892501
2625.273367,5625.565159,-2664.741391,-69561.471218
2625.275814,4293.194464,2664.741391,-71706.538613
2625.278261,-1628.453072,-2220.617826,-79520.712692
2625.280708,592.164754,-1332.370696,-76762.768900
2625.283155,6217.729913,-4145.153275,-69561.471218
2625.285602,7105.977043,-2368.659014,-68488.937521
2625.288049,5477.523971,-5477.523971,-76149.892501
2625.290496,-1036.288319,2812.782580,-77375.645298
2625.292943,-5329.482782,5625.565159,-75077.358804
2625.295390,4293.194464,-1184.329507,-72779.072310
2625.297837,5477.523971,-5921.647536,-71400.100414
2625.300284,3404.947333,-2664.741391,-72012.976812
2625.302731,148.041188,-1776.494261,-75230.577904
2625.305178,1332.370696,4737.318029,-76456.330700
2625.307625,-1480.411884,2960.823768,-75383.797003
2625.310072,444.123565,-1332.370696,-70634.004916
2625.312519,2664.741391,-1628.453072,-70940.443115
2625.314966,6365.771101,-3256.906145,-73238.729609
2625.317413,6069.688724,4145.153275,-73085.510509
2625.319860,3108.864956,-2812.782580,-74924.139704
2625.322346,3997.112087,-4293.194464,-73545.167808
2625.324831,3404.947333,-9178.553681,-72625.853210
2625.327317,4441.235652,-5921.647536,-71400.100414
2625.329803,5181.441594,-2812.782580,-72932.291410
2625.332289,2072.576638,4737.318029,-75230.577904
2625.334775,-1924.535449,9474.636058,-75537.016103
2625.337261,-888.247130,-740.205942,-74770.920605
2625.339747,7254.018232,-4145.153275,-71400.100414
2625.342233,11399.171507,-4145.153275,-71093.662214
2625.344718,-3701.029710,1332.370696,-74311.263306
2625.347204,-1184.329507,-5773.606348,-79061.055394
2625.349690,592.164754,-740.205942,-73391.948708
2625.352176,-3849.070898,3997.112087,-68795.375720
2625.354662,3256.906145,5181.441594,-72472.634111
2625.357148,3701.029710,-6217.729913,-77835.302597
2625.359634,-2812.782580,15988.448347,-71093.662214
2625.362120,-7846.182985,10807.006753,-74617.701505
2625.364605,-1776.494261,-4885.359217,-78294.959896
2625.367091,-444.123565,148.041188,-68642.156621
2625.369577,-296.082377,740.205942,-68795.375720
2625.372063,-2812.782580,1924.535449,-78141.740796
2625.374549,-3701.029710,4737.318029,-79061.055394
2625.377035,-3552.988522,11695.253884,-71093.662214
2625.379521,888.247130,2220.617826,-72012.976812
2625.382007,1628.453072,-3997.112087,-73545.167808
2625.384492,1480.411884,2960.823768,-72472.634111
2625.386978,-6069.688724,5921.647536,-74617.701505
2625.389464,-8734.430116,4885.359217,-76915.987999
2625.391950,-1480.411884,-148.041188,-74924.139704
2625.394436,2368.659014,1480.411884,-69408.252119
2625.396922,1184.329507,4145.153275,-70021.128517
2625.399408,148.041188,-1036.288319,-76456.330700
2625.401894,3404.947333,2960.823768,-75383.797003
2625.404379,1924.535449,5921.647536,-73238.729609
2625.406865,-592.164754,-5625.565159,-73698.386908
2625.409351,-1036.288319,2368.659014,-72625.853210
2625.411837,-3552.988522,3552.988522,-72625.853210
2625.414323,-7254.018232,8438.347739,-74464.482406
2625.416809,-2664.741391,12583.501014,-74924.139704
2625.419295,2220.617826,5181.441594,-75383.797003
2625.421805,5181.441594,2516.700203,-71246.881314
2625.424317,8290.306550,-4589.276840,-72166.195912
2625.426829,-7698.141797,-2516.700203,-74004.825107
2625.429341,-11547.212695,6957.935855,-75996.673402
2625.431853,-10955.047942,7846.182985,-76456.330700
2625.434365,1332.370696,-1776.494261,-73238.729609
2625.436877,8438.347739,8586.388927,-68182.499322
2625.439389,2220.617826,6513.812290,-72779.072310
2625.441901,-148.041188,-2516.700203,-78448.178995
2625.444413,-592.164754,-2664.741391,-74617.701505
2625.446925,-9474.636058,592.164754,-71706.538613
2625.449437,2516.700203,-6809.894666,-74158.044206
2625.451949,11251.130318,-10510.924376,-74617.701505
2625.454461,4589.276840,3849.070898,-68948.594820
2625.456973,4589.276840,6809.894666,-74311.263306
2625.459485,2072.576638,-4589.276840,-79673.931792
2625.461997,1184.329507,-148.041188,-70174.347617
2625.464509,2072.576638,740.205942,-68948.594820
2625.467021,740.205942,-6661.853478,-77988.521696
2625.469533,2220.617826,-1036.288319,-75383.797003
2625.472045,5033.400406,3256.906145,-71093.662214
2625.474557,8290.306550,-888.247130,-71706.538613
2625.477069,6661.853478,-8290.306550,-75690.235202
2625.479581,296.082377,-2072.576638,-72779.072310
2625.482093,-2960.823768,2960.823768,-72472.634111
2625.484605,1332.370696,296.082377,-76762.768900
2625.487117,2664.741391,-2368.659014,-74617.701505
2625.489629,8438.347739,1628.453072,-69867.909418
2625.492141,2812.782580,2516.700203,-71859.757712
2625.494654,-3404.947333,-5773.606348,-76762.768900
2625.497166,1776.494261,3997.112087,-74158.044206
2625.499678,-6069.688724,1628.453072,-73698.386908
2625.502190,2368.659014,-3552.988522,-74464.482406
2625.504702,7846.182985,1628.453072,-71093.662214
2625.507214,5625.565159,-4441.235652,-73851.606007
2625.509726,8290.306550,-2516.700203,-74770.920605
2625.512238,4885.359217,-6217.729913,-74004.825107
2625.514750,3849.070898,-3256.906145,-71246.881314
2625.517262,296.082377,-5033.400406,-73085.510509
2625.519774,444.123565,1776.494261,-74924.139704
2625.522300,-1924.535449,5625.565159,-73085.510509
2625.524827,9474.636058,5625.565159,-72319.415011
2625.527353,14952.160028,-1332.370696,-73391.948708
2625.529880,-2072.576638,-4885.359217,-73085.510509
2625.532406,-5625.565159,-2220.617826,-74464.482406
2625.534933,-148.041188,-9770.718434,-75843.454302
2625.537460,-2072.576638,5477.523971,-70021.128517
2625.539986,3108.864956,4293.194464,-72779.072310
2625.542513,8142.265362,444.123565,-76456.330700
2625.545039,1628.453072,8438.347739,-72012.976812
2625.547566,-7105.977043,10955.047942,-71093.662214
2625.550092,-7846.182985,2368.659014,-77835.302597
2625.552619,-1036.288319,-3108.864956,-75690.235202
2625.555145,2220.617826,3701.029710,-67263.184724
2625.557672,888.247130,3404.947333,-72625.853210
2625.560198,-4293.194464,-148.041188,-78448.178995
2625.562725,-3997.112087,7254.018232,-74464.482406
2625.565251,-592.164754,6069.688724,-70480.785816
2625.567778,-1332.370696,2516.700203,-73391.948708
2625.570304,-296.082377,-148.041188,-75383.797003
2625.572831,-2516.700203,-296.082377,-74158.044206
2625.575357,-2812.782580,5625.565159,-73238.729609
2625.577884,-592.164754,1480.411884,-76149.892501
2625.580411,-1480.411884,4145.153275,-73545.167808
2625.582937,-2368.659014,-148.041188,-72012.976812
2625.585464,3404.947333,-2960.823768,-73391.948708
2625.587990,-888.247130,3997.112087,-74311.263306
2625.590517,-296.082377,4441.235652,-74311.263306
2625.593043,4885.359217,2960.823768,-74004.825107
2625.595570,-1332.370696,-2220.617826,-73085.510509
2625.598096,-2960.823768,5329.482782,-71093.662214
2625.600623,-7254.018232,10955.047942,-72472.634111
2625.603149,-5329.482782,7550.100608,-76915.987999
2625.605676,1332.370696,4441.235652,-75077.358804
2625.608202,5625.565159,-888.247130,-71093.662214
2625.610729,148.041188,2072.576638,-70327.566716
2625.613255,-7254.018232,1924.535449,-75077.358804
2625.615782,-7402.059420,4441.235652,-75230.577904
2625.618309,0.000000,1776.494261,-73851.606007
2625.620835,2664.741391,5625.565159,-71246.881314
2625.623372,-1480.411884,7105.977043,-73085.510509
2625.625909,3849.070898,-1332.370696,-76149.892501
2625.628445,2516.700203,-1480.411884,-72012.976812
2625.630982,-2664.741391,3256.906145,-71706.538613
2625.633519,3701.029710,-5477.523971,-76149.892501
2625.636056,5921.647536,-11399.171507,-75690.235202
2625.638593,1924.535449,2072.576638,-68642.156621
2625.641129,-2664.741391,1332.370696,-74770.920605
2625.643666,888.247130,-2516.700203,-77988.521696
2625.646203,6513.812290,3256.906145,-69561.471218
2625.648740,5625.565159,1776.494261,-70787.224015
2625.651276,888.247130,-5921.647536,-78141.740796
2625.653813,-2220.617826,-740.205942,-75077.358804
2625.656350,1036.288319,-1036.288319,-71246.881314
2625.658887,4145.153275,-2812.782580,-73085.510509
2625.661424,6513.812290,-6217.729913,-76609.549800
2625.663960,5181.441594,-1332.370696,-71859.757712
2625.666497,-1924.535449,2664.741391,-71246.881314
2625.669034,1776.494261,-888.247130,-76456.330700
2625.671571,-1776.494261,0.000000,-74464.482406
2625.674108,3256.906145,1036.288319,-70940.443115
2625.676644,1628.453072,-2072.576638,-73085.510509
2625.679181,-592.164754,-2220.617826,-75230.577904
2625.681718,3108.864956,4589.276840,-73545.167808
2625.684255,2072.576638,444.123565,-74311.263306
2625.686791,5773.606348,-2072.576638,-73545.167808
2625.689328,7254.018232,-4441.235652,-72166.195912
2625.691865,5921.647536,-3997.112087,-72779.072310
2625.694402,4737.318029,-6069.688724,-75230.577904
2625.696939,2368.659014,-6069.688724,-75383.797003
2625.699475,148.041188,-3552.988522,-72319.415011
2625.702012,296.082377,4145.153275,-71553.319513
2625.704549,148.041188,3256.906145,-75230.577904
2625.707086,9326.594869,-740.205942,-74464.482406
2625.709623,11843.295072,2960.823768,-71093.662214
2625.712159,592.164754,-2368.659014,-73698.386908
2625.714696,-8290.306550,-2516.700203,-76915.987999
2625.717233,-3256.906145,-9918.759623,-72779.072310
2625.719770,4293.194464,5477.523971,-68182.499322
2625.722306,-888.247130,3997.112087,-74158.044206
2625.724756,6069.688724,-2960.823768,-79980.369991
2625.727206,1036.288319,9622.677246,-70940.443115
2625.729656,-9770.718434,13767.830521,-70327.566716
2625.732106,-7402.059420,3997.112087,-77988.521696
2625.734556,-1924.535449,-8438.347739,-77222.426198
2625.737006,1184.329507,7994.224174,-66343.870127
2625.739455,3108.864956,4885.359217,-71553.319513
2625.741905,-5625.565159,-296.082377,-79214.274493
2625.744355,-7698.141797,6809.894666,-72012.976812
2625.746805,0.000000,6069.688724,-70174.347617
2625.749255,-1776.494261,0.000000,-75077.358804
2625.751705,1332.370696,2664.741391,-74464.482406
2625.754155,-2072.576638,4441.235652,-71246.881314
2625.756605,-5181.441594,4441.235652,-73238.729609
2625.759054,-1776.494261,-2368.659014,-76915.987999
2625.761504,-296.082377,4145.153275,-71400.100414
2625.763954,-1924.535449,2220.617826,-70940.443115
2625.766404,2812.782580,-148.041188,-75690.235202
2625.768854,-444.123565,2220.617826,-74311.263306
2625.771304,-1036.288319,7846.182985,-72319.415011
2625.773754,148.041188,-296.082377,-74770.920605
2625.776203,-4737.318029,4145.153275,-73545.167808
2625.778653,-5033.400406,5033.400406,-71246.881314
2625.781103,-4885.359217,9918.759623,-73238.729609
2625.783553,-1924.535449,4293.194464,-77835.302597
2625.786003,3849.070898,3108.864956,-72932.291410
2625.788453,-1184.329507,7402.059420,-69714.690318
2625.790903,-6809.894666,-1036.288319,-76303.111601
2625.793352,-7105.977043,296.082377,-75843.454302
2625.795802,1924.535449,2812.782580,-71400.100414
2625.798252,3108.864956,7698.141797,-70327.566716
2625.800702,-5477.523971,5773.606348,-77988.521696
2625.803152,2960.823768,-1924.535449,-77835.302597
2625.805602,-592.164754,592.164754,-68642.156621
2625.808052,-1480.411884,5329.482782,-69408.252119
2625.810501,6217.729913,-10362.883188,-79520.712692
2625.812951,5625.565159,-8438.347739,-74464.482406
2625.815401,-148.041188,9474.636058,-68182.499322
2625.817851,-3256.906145,-4885.359217,-78141.740796
2625.820301,888.247130,-6069.688724,-76915.987999
2625.822785,6661.853478,2220.617826,-67416.403824
2625.825270,5181.441594,3849.070898,-69867.909418
2625.827754,3404.947333,-4293.194464,-78601.398095
2625.830239,0.000000,444.123565,-75537.016103
2625.832723,-2664.741391,2516.700203,-70634.004916
2625.835207,5773.606348,-7550.100608,-74617.701505
2625.837692,8290.306550,-8882.471304,-74924.139704
2625.840176,8290.306550,2664.741391,-71246.881314
2625.842661,1036.288319,1480.411884,-74004.825107
2625.845145,-592.164754,-4589.276840,-77222.426198
2625.847629,4441.235652,7254.018232,-71246.881314
2625.850114,-296.082377,-2812.782580,-70634.004916
2625.852598,4885.359217,1628.453072,-73545.167808
2625.855083,-1924.535449,2072.576638,-76303.111601
2625.857567,1924.535449,-1184.329507,-75077.358804
2625.860052,8290.306550,3108.864956,-71706.538613
2625.862536,4145.153275,-12731.542202,-74770.920605
2625.865020,12435.459826,740.205942,-70480.785816
2625.867505,9030.512492,-11399.171507,-74311.263306
2625.869989,1184.329507,-1924.535449,-75383.797003
2625.872474,-2960.823768,-592.164754,-75843.454302
2625.874958,-4293.194464,-2072.576638,-74770.920605
2625.877442,-2220.617826,5033.400406,-71093.662214
2625.879927,14508.036463,-6957.935855,-74158.044206
2625.882411,14359.995275,2960.823768,-71553.319513
2625.884896,-5181.441594,-444.123565,-74770.920605
2625.887380,-5921.647536,444.123565,-76915.987999
2625.889864,-4589.276840,-13471.748144,-75077.358804
2625.892349,-444.123565,2220.617826,-66956.746525
2625.894833,1332.370696,6069.688724,-72012.976812
2625.897318,7105.977043,-1480.411884,-79827.150892
2625.899802,2812.782580,10214.842000,-71859.757712
2625.902287,-11991.336260,11399.171507,-72319.415011
2625.904771,-6365.771101,-1332.370696,-78294.959896
2625.907255,-1184.329507,-5625.565159,-72932.291410
2625.909740,2368.659014,6069.688724,-67722.842023
2625.912224,1776.494261,4145.153275,-75690.235202
2625.914709,-5921.647536,0.000000,-80746.465489
2625.917193,-4737.318029,9770.718434,-70940.443115
2625.919677,-740.205942,6365.771101,-70174.347617
2625.922186,296.082377,-3849.070898,-76915.987999
2625.924694,-2812.782580,2072.576638,-72932.291410
2625.927202,0.000000,7105.977043,-73851.606007
2625.929710,-2960.823768,-1184.329507,-76609.549800
2625.932218,-740.205942,1628.453072,-73698.386908
2625.934726,-1480.411884,-888.247130,-69867.909418
2625.937234,-148.041188,3256.906145,-71553.319513
2625.939742,-3997.112087,-2220.617826,-77988.521696
2625.942251,-1776.494261,6661.853478,-74004.825107
2625.944759,-1776.494261,6513.812290,-71400.100414
2625.947267,-5477.523971,888.247130,-74158.044206
2625.949775,-4737.318029,4737.318029,-72166.195912
2625.952283,-444.123565,7105.977043,-71553.319513
2625.954791,-1776.494261,7550.100608,-75383.797003
2625.957299,-1924.535449,3108.864956,-78141.740796
2625.959807,-5181.441594,4589.276840,-72012.976812
2625.962315,-8142.265362,4145.153275,-72012.976812
2625.964824,3701.029710,-1776.494261,-74158.044206
2625.967332,4885.359217,-4441.235652,-73391.948708
2625.969840,-1184.329507,11843.295072,-70940.443115
2625.972348,1332.370696,8290.306550,-78294.959896
2625.974856,-296.082377,-6513.812290,-76762.768900
2625.977364,-1628.453072,4441.235652,-67109.965625
2625.979872,4885.359217,1036.288319,-70634.004916
2625.982380,9622.677246,-11399.171507,-79520.712692
2625.984888,3701.029710,-592.164754,-73545.167808
2625.987397,-888.247130,5181.441594,-70634.004916
2625.989905,1036.288319,-3552.988522,-76303.111601
2625.992413,1924.535449,-9030.512492,-75383.797003
2625.994921,7994.224174,1332.370696,-68642.156621
2625.997429,5329.482782,3404.947333,-73698.386908
2625.999937,-1628.453072,-1332.370696,-78907.836294
2626.002445,444.123565,740.205942,-72472.634111
2626.004953,3997.112087,888.247130,-68488.937521
2626.007462,7402.059420,-6513.812290,-73085.510509
2626.009970,10214.842000,-11547.212695,-77682.083497
2626.012478,2072.576638,4293.194464,-72932.291410
2626.014986,-3552.988522,-1184.329507,-73698.386908
2626.017494,592.164754,-2368.659014,-75996.673402
2626.020002,5329.482782,2220.617826,-68795.375720
2626.022529,-2516.700203,2072.576638,-71246.881314
2626.025055,-592.164754,-1628.453072,-76609.549800
2626.027581,4885.359217,-148.041188,-77528.864398
2626.030108,-592.164754,1776.494261,-73391.948708
2626.032634,7994.224174,-2960.823768,-72319.415011
2626.035160,8142.265362,-13027.624579,-72472.634111
2626.037687,5921.647536,-8586.388927,-70787.224015
2626.040213,6217.729913,1184.329507,-72625.853210
2626.042740,-4885.359217,740.205942,-79827.150892
2626.045266,-2812.782580,5181.441594,-75996.673402
2626.047792,9326.594869,-3701.029710,-70021.128517
2626.050319,13175.665768,-2664.741391,-68182.499322
2626.052845,4589.276840,-4589.276840,-74311.263306
2626.055372,-3849.070898,4441.235652,-77069.207099
2626.057898,-2516.700203,-5033.400406,-77528.864398
2626.060424,2072.576638,-1628.453072,-70787.224015
2626.062951,-3108.864956,1924.535449,-70174.347617
2626.065477,4589.276840,-1924.535449,-75077.358804
2626.068003,2960.823768,12879.583391,-72012.976812
2626.070530,-6661.853478,14211.954086,-74311.263306
2626.073056,-5329.482782,3849.070898,-78141.740796
2626.075583,-296.082377,-3552.988522,-74004.825107
2626.078109,2664.741391,4145.153275,-65730.993728
2626.080635,-592.164754,-2516.700203,-72932.291410
2626.083162,-4293.194464,1480.411884,-79367.493593
2626.085688,-8734.430116,12879.583391,-76303.111601
2626.088215,-6809.894666,8438.347739,-71859.757712
2626.090741,2960.823768,-1036.288319,-72012.976812
2626.093267,4145.153275,-1924.535449,-71400.100414
2626.095794,-2072.576638,4885.359217,-72932.291410
2626.098320,-5625.565159,3552.988522,-77375.645298
2626.100846,-2960.823768,4293.194464,-75843.454302
2626.103312,-1924.535449,3108.864956,-70787.224015
2626.105777,-3108.864956,-7550.100608,-71859.757712
2626.108242,6217.729913,2072.576638,-72012.976812
2626.110708,444.123565,2664.741391,-76149.892501
2626.113173,1184.329507,10362.883188,-73851.606007
2626.115638,-4293.194464,7994.224174,-72779.072310
2626.118103,-7550.100608,-5477.523971,-75077.358804
2626.120569,-3701.029710,5625.565159,-69561.471218
2626.123034,740.205942,7254.018232,-72625.853210
2626.125499,-2960.823768,10658.965565,-74924.139704
2626.127965,-5329.482782,6809.894666,-75843.454302
2626.130430,-1776.494261,5329.482782,-73698.386908
2626.132895,1184.329507,-4589.276840,-72012.976812
2626.135360,2072.576638,-1480.411884,-71400.100414
2626.137826,-1332.370696,7994.224174,-74004.825107
2626.140291,1184.329507,-592.164754,-78448.178995
2626.142756,592.164754,148.041188,-73851.606007
2626.145221,1628.453072,6069.688724,-69101.813920
2626.147687,4441.235652,-2516.700203,-72166.195912
2626.150152,10658.965565,-9918.759623,-75230.577904
2626.152617,0.000000,1924.535449,-72625.853210
2626.155083,-3256.906145,2960.823768,-74924.139704
2626.157548,444.123565,-7698.141797,-78141.740796
2626.160013,3701.029710,-5625.565159,-71093.662214
2626.162478,7698.141797,-1628.453072,-69255.033019
2626.164944,4293.194464,296.082377,-77222.426198
2626.167409,-2516.700203,5773.606348,-77375.645298
2626.169874,-1036.288319,-296.082377,-73545.167808
2626.172340,2960.823768,-2072.576638,-71553.319513
2626.174805,7550.100608,-7254.018232,-73085.510509
2626.177270,8438.347739,-6809.894666,-74004.825107
2626.179735,444.123565,1628.453072,-72625.853210
2626.182201,-592.164754,1924.535449,-77682.083497
2626.184666,2516.700203,444.123565,-75230.577904
2626.187131,-592.164754,-1480.411884,-69867.909418
2626.189597,-3256.906145,-3256.906145,-70021.128517
2626.192062,-1332.370696,592.164754,-75230.577904
2626.194527,2220.617826,444.123565,-78448.178995
2626.196992,8290.306550,296.082377,-73851.606007
2626.199458,11991.336260,-10214.842000,-72012.976812
2626.201952,7698.141797,-9326.594869,-69714.690318
2626.204447,2812.782580,-5773.606348,-72012.976812
2626.206941,-5773.606348,6957.935855,-75690.235202
2626.209436,-3701.029710,5477.523971,-78448.178995
2626.211931,9918.759623,-4589.276840,-73698.386908
2626.214425,11547.212695,-1184.329507,-66803.527426
2626.216920,2220.617826,-2812.782580,-70787.224015
2626.219415,-2368.659014,-2516.700203,-76915.987999
2626.221909,-740.205942,-7105.977043,-77682.083497
2626.224404,-3108.864956,5181.441594,-70634.004916
2626.226898,-2664.741391,9030.512492,-72932.291410
2626.229393,4589.276840,-9326.594869,-75996.673402
2626.231888,1332.370696,9918.759623,-67569.622924
2626.234382,-5921.647536,16728.654289,-71859.757712
2626.236877,-2960.823768,296.082377,-81818.999186
2626.239372,-2516.700203,148.041188,-74770.920605
2626.241866,1628.453072,4293.194464,-65577.774629
2626.244361,-1332.370696,-1184.329507,-72166.195912
2626.246855,-5773.606348,-3256.906145,-80899.684589
2626.249350,-4293.194464,10955.047942,-73545.167808
2626.251845,-5033.400406,12435.459826,-70327.566716
2626.254339,2368.659014,-3108.864956,-76456.330700
2626.256834,5329.482782,-1332.370696,-72472.634111
2626.259329,-2812.782580,2072.576638,-69867.909418
2626.261823,-5921.647536,1628.453072,-76762.768900
2626.264318,-592.164754,296.082377,-78601.398095
2626.266812,-1036.288319,5329.482782,-71246.881314
2626.269307,888.247130,-592.164754,-69255.033019
2626.271802,3108.864956,-1924.535449,-73851.606007
2626.274296,-3404.947333,1776.494261,-75230.577904
2626.276791,1036.288319,6069.688724,-75690.235202
2626.279285,-6809.894666,7402.059420,-75383.797003
2626.281780,-6365.771101,3108.864956,-74004.825107
2626.284275,-740.205942,3701.029710,-69408.252119
2626.286769,-2368.659014,6661.853478,-71093.662214
2626.289264,-3552.988522,8882.471304,-77375.645298
2626.291759,-2220.617826,4145.153275,-76303.111601
2626.294253,3552.988522,2072.576638,-71553.319513
2626.296748,148.041188,-3997.112087,-71859.757712
2626.299242,-4293.194464,2220.617826,-74770.920605
2626.301760,5033.400406,1776.494261,-73851.606007
2626.304278,3404.947333,7846.182985,-70327.566716
2626.306796,-148.041188,3552.988522,-75230.577904
2626.309314,6661.853478,-9030.512492,-77375.645298
2626.311832,4737.318029,-2960.823768,-69255.033019
2626.314349,1628.453072,4441.235652,-68642.156621
2626.316867,-1776.494261,-6957.935855,-80593.246390
2626.319385,2072.576638,-7254.018232,-77988.521696
2626.321903,7846.182985,2960.823768,-68029.280222
2626.324421,5033.400406,-1332.370696,-72932.291410
2626.326939,-6069.688724,-4589.276840,-77988.521696
2626.329456,-2516.700203,5477.523971,-71400.100414
2626.331974,-1776.494261,-148.041188,-71859.757712
2626.334492,5033.400406,-1628.453072,-76303.111601
2626.337010,6217.729913,-6217.729913,-72932.291410
2626.339528,1628.453072,-888.247130,-69561.471218
2626.342046,2220.617826,0.000000,-73085.510509
2626.344563,1036.288319,3701.029710,-76762.768900
2626.347081,-740.205942,740.205942,-74770.920605
2626.349599,1924.535449,-4293.194464,-71400.100414
2626.352117,592.164754,-3997.112087,-72472.634111
2626.354635,3849.070898,148.041188,-75077.358804
2626.357153,11695.253884,1036.288319,-74464.482406
2626.359670,9622.677246,-7846.182985,-74311.263306
2626.362188,4589.276840,-7254.018232,-72319.415011
2626.364706,0.000000,-5181.441594,-71706.538613
2626.367224,-3552.988522,4293.194464,-74311.263306
2626.369742,740.205942,-592.164754,-77222.426198
2626.372260,12731.542202,2072.576638,-71706.538613
2626.374777,10510.924376,-2516.700203,-70480.785816
2626.377295,-1776.494261,-1036.288319,-72932.291410
2626.379813,-2516.700203,-8882.471304,-77222.426198
2626.382331,888.247130,-1924.535449,-72319.415011
2626.384849,-5477.523971,7402.059420,-72012.976812
2626.387366,888.247130,3256.906145,-77682.083497
2626.389884,2960.823768,-3404.947333,-76303.111601
2626.392402,-444.123565,11103.089130,-66190.651027
2626.394920,-8734.430116,9622.677246,-72779.072310
2626.397438,-3701.029710,-6365.771101,-81818.999186
2626.399956,740.205942,9030.512492,-69408.252119
2626.402489,-888.247130,3997.112087,-68795.375720
2626.405025,-3997.112087,-444.123565,-77375.645298
2626.407561,-7698.141797,-4737.318029,-77835.302597
2626.410097,-2960.823768,15840.407159,-68488.937521
2626.412632,-888.247130,9474.636058,-72779.072310
2626.415168,1628.453072,-4293.194464,-77835.302597
2626.417704,-296.082377,4441.235652,-70174.347617
2626.420240,-1036.288319,-592.164754,-72932.291410
2626.422775,-6809.894666,-148.041188,-77222.426198
2626.425311,-888.247130,3404.947333,-75843.454302
2626.427847,1924.535449,4293.194464,-71093.662214
2626.430383,740.205942,-1036.288319,-71553.319513
2626.432918,3256.906145,-296.082377,-73085.510509
2626.435454,-1036.288319,6217.729913,-73851.606007
2626.437990,-6513.812290,5477.523971,-75996.673402
2626.440526,-6217.729913,8290.306550,-75230.577904
2626.443061,-3552.988522,8734.430116,-71706.538613
2626.445597,-3108.864956,5329.482782,-71246.881314
2626.448133,-2368.659014,7846.182985,-74311.263306
2626.450669,2220.617826,-2220.617826,-75843.454302
2626.453204,3256.906145,6661.853478,-71093.662214
2626.455740,-3256.906145,1036.288319,-72932.291410
2626.458276,-4737.318029,-1184.329507,-76303.111601
2626.460812,1480.411884,-6661.853478,-76149.892501
2626.463347,1480.411884,6809.894666,-68182.499322
2626.465883,2812.782580,4589.276840,-75383.797003
2626.468419,10214.842000,-8586.388927,-79980.369991
2626.470954,1332.370696,-444.123565,-69101.813920
2626.473490,-1628.453072,2072.576638,-68488.937521
2626.476026,-1480.411884,-6957.935855,-78754.617194
2626.478562,2812.782580,-10066.800811,-77222.426198
2626.481097,10955.047942,3256.906145,-68488.937521
2626.483633,4441.235652,888.247130,-72932.291410
2626.486169,-296.082377,-8142.265362,-79367.493593
2626.488705,-3701.029710,1628.453072,-72319.415011
2626.491240,888.247130,6069.688724,-70021.128517
2626.493776,8882.471304,-5625.565159,-76762.768900
2626.496312,8734.430116,-5477.523971,-77069.207099
2626.498848,1480.411884,-5329.482782,-71093.662214
2626.501383,296.082377,-444.123565,-72319.415011
2626.503932,-2664.741391,-1036.288319,-77528.864398
2626.506480,5477.523971,5033.400406,-72319.415011
2626.509028,1924.535449,2516.700203,-69714.690318
2626.511576,2220.617826,-4737.318029,-73545.167808
2626.514124,4441.235652,-148.041188,-74770.920605
2626.516672,8882.471304,-6957.935855,-74617.701505
2626.519220,4737.318029,-1776.494261,-72779.072310
2626.521768,2960.823768,-9030.512492,-73085.510509
2626.524316,740.205942,3997.112087,-70327.566716
2626.526864,2516.700203,-148.041188,-74311.263306
2626.529412,9918.759623,0.000000,-75383.797003
2626.531960,9918.759623,888.247130,-73545.167808
2626.534509,-1184.329507,1184.329507,-72472.634111
2626.537057,-3701.029710,-4589.276840,-75383.797003
2626.539605,3552.988522,-11843.295072,-74464.482406
2626.542153,-2220.617826,6217.729913,-68795.375720
2626.544701,2368.659014,11103.089130,-74464.482406
2626.547249,3997.112087,-2960.823768,-80593.246390
2626.549797,-2812.782580,6809.894666,-70634.004916
2626.552345,-7698.141797,10658.965565,-68335.718422
2626.554893,-7698.141797,0.000000,-77835.302597
2626.557441,-1628.453072,888.247130,-76762.768900
2626.559989,4441.235652,6809.894666,-68335.718422
2626.562537,-2368.659014,2220.617826,-74924.139704
2626.565086,-4441.235652,-1924.535449,-77988.521696
2626.567634,-6365.771101,9474.636058,-71553.319513
2626.570182,-3108.864956,7550.100608,-70480.785816
2626.572730,3997.112087,740.205942,-76915.987999
2626.575278,-592.164754,-740.205942,-76456.330700
2626.577826,-444.123565,6513.812290,-70174.347617
2626.580374,-3256.906145,2664.741391,-72625.853210
2626.582922,4145.153275,-1628.453072,-78141.740796
2626.585470,5477.523971,6661.853478,-71859.757712
2626.588018,-3552.988522,-2516.700203,-72319.415011
2626.590566,-888.247130,888.247130,-73851.606007
2626.593115,-6069.688724,3404.947333,-75537.016103
2626.595663,-4145.153275,7994.224174,-72779.072310
2626.598211,-3108.864956,11547.212695,-72166.195912
2626.600759,-3404.947333,4885.359217,-74617.701505
2626.603307,-3404.947333,8438.347739,-71093.662214
2626.605864,-1332.370696,3108.864956,-74004.825107
2626.608422,2516.700203,-296.082377,-75843.454302
2626.610980,-2516.700203,-1628.453072,-73391.948708
2626.613537,-5033.400406,7105.977043,-71093.662214
2626.616095,1776.494261,-6513.812290,-75537.016103
2626.618652,3997.112087,444.123565,-72166.195912
2626.621210,2220.617826,5477.523971,-70021.128517
2626.623767,5329.482782,1332.370696,-75996.673402
2626.626325,4885.359217,-3108.864956,-78141.740796
2626.628882,-1776.494261,2220.617826,-71553.319513
2626.631440,-1332.370696,-3997.112087,-72472.634111
2626.633998,6661.853478,-8438.347739,-75537.016103
2626.636555,10807.006753,-4145.153275,-72319.415011
2626.639113,8882.471304,1332.370696,-71093.662214
2626.641670,1924.535449,888.247130,-74924.139704
2626.644228,-6957.935855,-4441.235652,-77682.083497
2626.646785,-4145.153275,3997.112087,-71093.662214
2626.649343,1628.453072,-740.205942,-71246.881314
2626.651900,4737.318029,444.123565,-73238.729609
2626.654458,4293.194464,-5625.565159,-75383.797003
2626.657016,444.123565,-1036.288319,-72779.072310
2626.659573,-5033.400406,-2072.576638,-74004.825107
2626.662131,1776.494261,888.247130,-74924.139704
2626.664688,-740.205942,-592.164754,-72012.976812
2626.667246,1332.370696,-1332.370696,-71706.538613
2626.669803,7550.100608,1924.535449,-72472.634111
2626.672361,7846.182985,-10214.842000,-76762.768900
2626.674919,8586.388927,-2516.700203,-73391.948708
2626.677476,2368.659014,-6513.812290,-72166.195912
2626.680034,-2220.617826,740.205942,-73238.729609
2626.682591,1776.494261,-2960.823768,-74311.263306
2626.685149,9622.677246,2220.617826,-71553.319513
2626.687706,5625.565159,1480.411884,-72932.291410
2626.690264,-1184.329507,2368.659014,-75537.016103
2626.692821,444.123565,-2960.823768,-74617.701505
2626.695379,5773.606348,-9030.512492,-70327.566716
2626.697937,-4737.318029,2960.823768,-70940.443115
2626.700494,-148.041188,3404.947333,-77835.302597
2626.703052,4885.359217,7846.182985,-73698.386908
2626.705609,-3256.906145,10214.842000,-69101.813920
2626.708174,-2516.700203,8882.471304,-73238.729609
2626.710739,-1332.370696,-7105.977043,-77682.083497
2626.713303,-296.082377,8438.347739,-70174.347617
2626.715868,1924.535449,6661.853478,-71706.538613
2626.718433,-5329.482782,-1628.453072,-78294.959896
2626.720998,-7105.977043,2220.617826,-75230.577904
2626.723562,-5921.647536,8882.471304,-68948.594820
2626.726127,-2368.659014,4441.235652,-74004.825107
2626.728692,3849.070898,444.123565,-76303.111601
2626.731256,3404.947333,7550.100608,-72012.976812
2626.733821,-4441.235652,444.123565,-74311.263306
2626.736386,296.082377,-2516.700203,-75843.454302
2626.738951,-2368.659014,5477.523971,-74158.044206
2626.741515,-4293.194464,-592.164754,-73238.729609
2626.744080,5033.400406,296.082377,-72625.853210
2626.746645,-5921.647536,3552.988522,-72932.291410
2626.749209,-2812.782580,6661.853478,-74617.701505
2626.751774,-6217.729913,10214.842000,-75537.016103
2626.754339,-8142.265362,7994.224174,-73545.167808
2626.756904,-2072.576638,8290.306550,-70480.785816
2626.759468,4737.318029,4737.318029,-72625.853210
2626.762033,5773.606348,148.041188,-74770.920605
2626.764598,-1776.494261,-1924.535449,-74617.701505
2626.767162,-8882.471304,4441.235652,-74311.263306
2626.769727,-888.247130,-8290.306550,-76915.987999
2626.772292,740.205942,0.000000,-70634.004916
2626.774857,1036.288319,3552.988522,-70327.566716
2626.777421,11399.171507,592.164754,-76915.987999
2626.779986,3849.070898,-2072.576638,-75996.673402
2626.782551,-1332.370696,2072.576638,-70327.566716
2626.785115,-3404.947333,-6217.729913,-73085.510509
2626.787680,2516.700203,-9918.759623,-75383.797003
2626.790245,9622.677246,-1480.411884,-71246.881314
2626.792810,8142.265362,-3108.864956,-73391.948708
2626.795374,3997.112087,592.164754,-75843.454302
2626.797939,-3256.906145,0.000000,-75383.797003
2626.800504,-2516.700203,148.041188,-70327.566716
2626.803068,6809.894666,1332.370696,-71553.319513
2626.805633,10214.842000,-3997.112087,-77222.426198
2626.808198,4589.276840,-740.205942,-75230.577904
2626.810766,-2368.659014,-5329.482782,-74464.482406
2626.813335,1628.453072,148.041188,-73391.948708
2626.815903,1628.453072,-1480.411884,-73851.606007
2626.818472,2960.823768,592.164754,-71400.100414
2626.821040,6809.894666,-1776.494261,-71093.662214
2626.823609,6661.853478,-4441.235652,-75383.797003
2626.826177,2072.576638,-5181.441594,-76456.330700
2626.828746,4441.235652,-3997.112087,-73545.167808
2626.831314,148.041188,0.000000,-71400.100414
2626.833882,5625.565159,-8586.388927,-74770.920605
2626.836451,10214.842000,-148.041188,-72012.976812
2626.839019,8438.347739,4885.359217,-71706.538613
2626.841588,-3997.112087,5625.565159,-76149.892501
2626.844156,-2960.823768,-2664.741391,-78754.617194
2626.846725,2516.700203,-8142.265362,-72012.976812
2626.849293,-2516.700203,2368.659014,-68335.718422
2626.851862,2368.659014,2220.617826,-77222.426198
2626.854430,1628.453072,-1776.494261,-77528.864398
2626.856999,-3849.070898,14656.077652,-69255.033019
2626.859567,-4145.153275,7994.224174,-72625.853210
2626.862135,-6809.894666,-4145.153275,-79673.931792
2626.864704,-592.164754,6809.894666,-70174.347617
2626.867272,-296.082377,4441.235652,-68795.375720
2626.869841,-4441.235652,2516.700203,-78141.740796
2626.872409,-2368.659014,-3404.947333,-77069.207099
2626.874978,-3701.029710,11695.253884,-66803.527426
2626.877546,-888.247130,2960.823768,-72166.195912
2626.880115,4885.359217,-2664.741391,-77988.521696
2626.882683,-2664.741391,4737.318029,-73085.510509
2626.885252,0.000000,6217.729913,-71706.538613
2626.887820,-1924.535449,-2960.823768,-76303.111601
2626.890389,-2220.617826,-1184.329507,-75383.797003
2626.892957,6365.771101,9770.718434,-69408.252119
2626.895525,-5181.441594,-2368.659014,-73698.386908
2626.898094,-6513.812290,4441.235652,-73698.386908
2626.900662,-5773.606348,11103.089130,-72319.415011
2626.903231,-8290.306550,7105.977043,-76303.111601
2626.905799,-5477.523971,10362.883188,-75843.454302
2626.908368,-3552.988522,5477.523971,-72012.976812
2626.910936,5181.441594,3108.864956,-69561.471218
2626.913507,6217.729913,-1184.329507,-72932.291410
2626.916079,-6809.894666,4589.276840,-76149.892501
2626.918650,-4885.359217,-888.247130,-75690.235202
2626.921221,3997.112087,296.082377,-70634.004916
2626.923792,2664.741391,-1924.535449,-70787.224015
2626.926363,6809.894666,-148.041188,-74770.920605
2626.928935,11399.171507,-444.123565,-75537.016103
2626.931506,3552.988522,6513.812290,-72472.634111
2626.934077,-5033.400406,-592.164754,-73851.606007
2626.936648,-1036.288319,-8438.347739,-75996.673402
2626.939219,2072.576638,-10066.800811,-72166.195912
2626.941791,12879.583391,2220.617826,-69408.252119
2626.944362,7994.224174,-1924.535449,-77222.426198
2626.946933,-2072.576638,-592.164754,-77528.864398
2626.949504,-2960.823768,5033.400406,-72319.415011
2626.952075,-3404.947333,-3997.112087,-71706.538613
2626.954647,3849.070898,-1184.329507,-72166.195912
2626.957218,9918.759623,-1332.370696,-73851.606007
2626.959789,-2664.741391,-2516.700203,-75230.577904
2626.962360,-740.205942,-1036.288319,-75383.797003
2626.964931,2368.659014,3997.112087,-73545.167808
2626.967503,3849.070898,-2664.741391,-72319.415011
2626.970074,5329.482782,-1332.370696,-70634.004916
2626.972645,4885.359217,-6365.771101,-74004.825107
2626.975216,4293.194464,-3849.070898,-75537.016103
2626.977787,2368.659014,-2960.823768,-75537.016103
2626.980359,148.041188,-4293.194464,-73851.606007
2626.982930,5329.482782,-5921.647536,-71400.100414
2626.985501,11991.336260,-4293.194464,-71246.881314
2626.988072,7402.059420,1924.535449,-72932.291410
2626.990643,-1628.453072,9326.594869,-76762.768900
2626.993215,-1036.288319,592.164754,-77375.645298
2626.995786,1480.411884,-7254.018232,-70787.224015
2626.998357,-3256.906145,6069.688724,-67416.403824
2627.000928,3701.029710,-1924.535449,-75537.016103
2627.003499,1924.535449,0.000000,-76456.330700
2627.006071,-1184.329507,12139.377449,-71400.100414
2627.008642,-6513.812290,6661.853478,-73391.948708
2627.011213,-4589.276840,-592.164754,-77222.426198
2627.013784,0.000000,5773.606348,-71706.538613
2627.016358,1036.288319,6069.688724,-70787.224015
2627.018931,-2072.576638,1776.494261,-78294.959896
2627.021504,-4293.194464,3552.988522,-77069.207099
2627.024078,-3552.988522,7550.100608,-70787.224015
2627.026651,740.205942,-1480.411884,-71246.881314
2627.029224,-1036.288319,740.205942,-74311.263306
2627.031798,-1924.535449,6365.771101,-75230.577904
2627.034371,-2960.823768,1036.288319,-75996.673402
2627.036945,444.123565,1036.288319,-73851.606007
2627.039518,3701.029710,4589.276840,-72166.195912
2627.042091,740.205942,-296.082377,-73698.386908
2627.044665,-2960.823768,2960.823768,-72625.853210
2627.047238,-9326.594869,1924.535449,-74770.920605
2627.049811,-10510.924376,13619.789333,-73085.510509
2627.052385,-8438.347739,7105.977043,-77069.207099
2627.054958,-5477.523971,8586.388927,-73391.948708
2627.057532,6365.771101,3701.029710,-71400.100414
2627.060105,5921.647536,0.000000,-70940.443115
2627.062678,-8290.306550,3997.112087,-74311.263306
2627.065252,-6661.853478,0.000000,-77835.302597
2627.067825,-3108.864956,-5181.441594,-76915.987999
2627.070398,2368.659014,5329.482782,-68795.375720
2627.072972,6661.853478,-444.123565,-71093.662214
2627.075545,11399.171507,-2368.659014,-75843.454302
2627.078118,6809.894666,-1036.288319,-74464.482406
2627.080692,-3108.864956,2220.617826,-71246.881314
2627.083265,-5921.647536,-444.123565,-74770.920605
2627.085839,4145.153275,-12139.377449,-75230.577904
2627.088412,9326.594869,-1480.411884,-67876.061123
2627.090985,11695.253884,-1924.535449,-72625.853210
2627.093559,6513.812290,296.082377,-78448.178995
2627.096132,-7254.018232,592.164754,-75996.673402
2627.098705,-1184.329507,3997.112087,-70327.566716
2627.101279,-1184.329507,-6661.853478,-71859.757712
2627.103852,10658.965565,-1332.370696,-74311.263306
2627.106425,2368.659014,-2368.659014,-74464.482406
2627.108999,-3108.864956,3552.988522,-73851.606007
2627.111572,1776.494261,1480.411884,-75230.577904
2627.114146,3997.112087,-4293.194464,-73698.386908
2627.116719,6365.771101,888.247130,-68488.937521
2627.119242,6809.894666,-7550.100608,-72779.072310
2627.121765,1628.453072,-888.247130,-75843.454302
2627.124289,888.247130,-5921.647536,-76303.111601
2627.126812,-296.082377,-1332.370696,-73391.948708
2627.129335,6365.771101,-6809.894666,-72625.853210
2627.131858,12435.459826,-7994.224174,-71859.757712
2627.134381,0.000000,2812.782580,-71859.757712
2627.136905,-4441.235652,6661.853478,-77528.864398
2627.139428,148.041188,-1628.453072,-78448.178995
2627.141951,148.041188,444.123565,-71093.662214
2627.144474,-4145.153275,6217.729913,-67416.403824
2627.146997,296.082377,-6809.894666,-76762.768900
2627.149520,3108.864956,0.000000,-75690.235202
2627.152044,-3997.112087,10807.006753,-69867.909418
2627.154567,-2220.617826,11695.253884,-74004.825107
2627.157090,-2516.700203,-5329.482782,-79214.274493
2627.159613,296.082377,5329.482782,-66803.527426
2627.162136,2220.617826,9622.677246,-71400.100414
2627.164660,-2664.741391,-1036.288319,-81052.903688
2627.167183,-8142.265362,7846.182985,-75077.358804
2627.169706,-592.164754,3256.906145,-69255.033019
2627.172229,-4145.153275,-1480.411884,-72625.853210
2627.174752,888.247130,1776.494261,-75537.016103
2627.177276,-5329.482782,3108.864956,-72779.072310
2627.179799,1628.453072,1776.494261,-72779.072310
2627.182322,7698.141797,592.164754,-76303.111601
2627.184845,-4589.276840,5921.647536,-70634.004916
2627.187368,-740.205942,2220.617826,-70787.224015
2627.189892,-5921.647536,1628.453072,-75230.577904
2627.192415,-13767.830521,5477.523971,-77835.302597
2627.194938,-5773.606348,17172.777854,-71553.319513
2627.197461,-6809.894666,9178.553681,-74158.044206
2627.199984,7105.977043,3997.112087,-73698.386908
2627.202508,9178.553681,-6513.812290,-71400.100414
2627.205031,-3256.906145,6661.853478,-70327.566716
2627.207554,-11399.171507,-444.123565,-79061.055394
2627.210077,-2516.700203,-4441.235652,-77222.426198
2627.212600,1480.411884,5477.523971,-67569.622924
2627.215124,7105.977043,-296.082377,-69867.909418
2627.217647,13471.748144,-3256.906145,-76915.987999
2627.220183,7402.059420,-3404.947333,-74770.920605
2627.222718,-5477.523971,5921.647536,-69867.909418
2627.225254,-4441.235652,-3552.988522,-77375.645298
2627.227790,2220.617826,-13175.665768,-77682.083497
2627.230326,10214.842000,-296.082377,-66497.089226
2627.232862,13915.871710,-888.247130,-70787.224015
2627.235397,4145.153275,-1480.411884,-78907.836294
2627.237933,-3552.988522,1332.370696,-75537.016103
2627.240469,1036.288319,5921.647536,-70174.347617
2627.243005,1628.453072,-7698.141797,-72779.072310
2627.245541,8290.306550,-1924.535449,-75383.797003
2627.248076,444.123565,-5625.565159,-74770.920605
2627.250612,-1480.411884,3552.988522,-72166.195912
2627.253148,-1924.535449,1776.494261,-75690.235202
2627.255684,4145.153275,-3256.906145,-73391.948708
2627.258220,6957.935855,-4293.194464,-68335.718422
2627.260755,6513.812290,-3404.947333,-71553.319513
2627.263291,2516.700203,-7105.977043,-77988.521696
2627.265827,-740.205942,-592.164754,-75996.673402
2627.268363,740.205942,-2368.659014,-73545.167808
2627.270899,10214.842000,-7402.059420,-72319.415011
2627.273434,7402.059420,-10510.924376,-72012.976812
2627.275970,1184.329507,6513.812290,-70174.347617
2627.278506,-148.041188,6661.853478,-77222.426198
2627.281042,1628.453072,444.123565,-76762.768900
2627.283578,-5921.647536,5033.400406,-71859.757712
2627.286113,-1184.329507,-1184.329507,-71093.662214
2627.288649,1036.288319,-4293.194464,-74924.139704
2627.291185,-740.205942,4737.318029,-71400.100414
2627.293721,-4441.235652,12731.542202,-72012.976812
2627.296256,-2664.741391,1036.288319,-79520.712692
2627.298792,-148.041188,6069.688724,-74464.482406
2627.301336,-444.123565,4293.194464,-68029.280222
2627.303881,-2220.617826,2516.700203,-73851.606007
2627.306425,-6069.688724,2368.659014,-78448.178995
2627.308969,-1924.535449,8586.388927,-74464.482406
2627.311513,-4145.153275,2960.823768,-71400.100414
2627.314057,2664.741391,-888.247130,-73085.510509
2627.316601,3108.864956,2960.823768,-72166.195912
2627.319146,-8438.347739,2220.617826,-73085.510509
2627.321690,1924.535449,-1332.370696,-75996.673402
2627.324234,8142.265362,6365.771101,-73698.386908
2627.326778,-4885.359217,2072.576638,-73698.386908
2627.329322,-1480.411884,2516.700203,-70480.785816
2627.331866,-8142.265362,6365.771101,-73698.386908
2627.334410,-12139.377449,10362.883188,-75383.797003
2627.336955,-6069.688724,13767.830521,-75077.358804
2627.339499,2072.576638,5921.647536,-74617.701505
2627.342043,5625.565159,-2368.659014,-71706.538613
2627.344587,-2664.741391,-444.123565,-70940.443115
2627.347131,-7105.977043,148.041188,-74770.920605
2627.349675,-1184.329507,-7402.059420,-77222.426198
2627.352220,148.041188,9770.718434,-70634.004916
2627.354764,3997.112087,1628.453072,-73238.729609
2627.357308,7994.224174,-6661.853478,-76303.111601
2627.359852,5625.565159,-3552.988522,-71706.538613
2627.362396,-2072.576638,6809.894666,-70021.128517
2627.364940,-4441.235652,-4441.235652,-78141.740796
2627.367485,5477.523971,-9030.512492,-76456.330700
2627.370029,11399.171507,-1036.288319,-68182.499322
2627.372573,8586.388927,-7254.018232,-73545.167808
2627.375117,888.247130,-1776.494261,-76915.987999
2627.377661,-2960.823768,1036.288319,-75690.235202
2627.380205,740.205942,5181.441594,-71706.538613
2627.382750,2664.741391,-1776.494261,-73085.510509
2627.385294,9770.718434,-7698.141797,-73851.606007
2627.387838,3701.029710,1924.535449,-70480.785816
2627.390382,-3256.906145,1036.288319,-74617.701505
2627.392926,-1924.535449,-592.164754,-77835.302597
2627.395470,1480.411884,-296.082377,-74464.482406
2627.398014,9622.677246,-3552.988522,-69867.909418
2627.400559,6957.935855,-6809.894666,-73545.167808
2627.403113,5625.565159,-7846.182985,-75996.673402
2627.405665,4737.318029,1184.329507,-74158.044206
2627.408217,3108.864956,-5329.482782,-75843.454302
2627.410769,7846.182985,-8586.388927,-73545.167808
2627.413321,-2368.659014,-2960.823768,-70327.566716
2627.415873,-1332.370696,7846.182985,-72472.634111
2627.418425,2664.741391,-3404.947333,-77988.521696
2627.420977,-296.082377,5625.565159,-72472.634111
2627.423529,-3256.906145,12139.377449,-72012.976812
2627.426081,-2960.823768,-10807.006753,-78294.959896
2627.428633,-2664.741391,-2368.659014,-72932.291410
2627.431185,-4737.318029,7994.224174,-68795.375720
2627.433737,-5477.523971,10807.006753,-76456.330700
2627.436289,-1628.453072,-444.123565,-80440.027290
2627.438841,2072.576638,8586.388927,-69101.813920
2627.441393,2072.576638,7698.141797,-67569.622924
2627.443945,-6957.935855,-4589.276840,-79214.274493
2627.446496,-7550.100608,7550.100608,-75077.358804
2627.449048,-1184.329507,6809.894666,-71706.538613
2627.451600,-2368.659014,-1184.329507,-74924.139704
2627.454152,-592.164754,-2812.782580,-74770.920605
2627.456704,5625.565159,8734.430116,-69561.471218
2627.459256,-2368.659014,2664.741391,-71246.881314
2627.461808,5181.441594,-4885.359217,-77528.864398
2627.464360,444.123565,5921.647536,-74311.263306
2627.466912,-7550.100608,4441.235652,-72779.072310
2627.469464,-8438.347739,5329.482782,-74464.482406
2627.472016,-8882.471304,6513.812290,-73545.167808
2627.474568,-4885.359217,17024.736666,-70327.566716
2627.477120,6217.729913,3256.906145,-75843.454302
2627.479672,6957.935855,3552.988522,-74770.920605
2627.482224,-3108.864956,-1924.535449,-72779.072310
2627.484776,-10362.883188,1924.535449,-72319.415011
2627.487328,-5033.400406,-8290.306550,-76915.987999
2627.489880,592.164754,-1332.370696,-73545.167808
2627.492432,5033.400406,6661.853478,-70940.443115
2627.494984,14804.118840,-1924.535449,-77069.207099
2627.497536,5329.482782,-2664.741391,-74311.263306
2627.500088,-5181.441594,592.164754,-70787.224015
2627.502640,-5625.565159,-2664.741391,-75230.577904
2627.505198,-296.082377,-10362.883188,-77528.864398
2627.507757,10510.924376,-1332.370696,-70787.224015
2627.510316,14508.036463,-4145.153275,-70940.443115
2627.512875,4737.318029,-1036.288319,-74924.139704
2627.515433,7994.224174,-1332.370696,-75690.235202
2627.517992,740.205942,4293.194464,-71093.662214
2627.520551,-1480.411884,1036.288319,-72319.415011
2627.523110,6661.853478,-9474.636058,-77682.083497
2627.525668,5181.441594,2220.617826,-72472.634111
2627.528227,-4145.153275,7402.059420,-71553.319513
2627.530786,3849.070898,-3256.906145,-75537.016103
2627.533345,5921.647536,0.000000,-74311.263306
2627.535903,5181.441594,-7550.100608,-71706.538613
2627.538462,11991.336260,592.164754,-68795.375720
2627.541021,2516.700203,-2664.741391,-75077.358804
2627.543580,4589.276840,-10510.924376,-77222.426198
2627.546138,7402.059420,-1480.411884,-70634.004916
2627.548697,4589.276840,-5477.523971,-74158.044206
2627.551256,-888.247130,5329.482782,-72166.195912
2627.553814,4441.235652,-1036.288319,-74617.701505
2627.556373,4737.318029,3108.864956,-72319.415011
2627.558932,-3256.906145,6809.894666,-73545.167808
2627.561491,-6513.812290,3849.070898,-76762.768900
2627.564049,-1480.411884,-2072.576638,-72932.291410
2627.566608,-888.247130,3849.070898,-68795.375720
2627.569167,-2812.782580,3997.112087,-74158.044206
2627.571726,-1924.535449,4441.235652,-78141.740796
2627.574284,296.082377,11843.295072,-69714.690318
2627.576843,-1332.370696,3256.906145,-72319.415011
2627.579402,-3849.070898,1924.535449,-75996.673402
2627.581961,-4441.235652,1332.370696,-73085.510509
2627.584519,444.123565,9178.553681,-70634.004916
2627.587078,4145.153275,1924.535449,-75996.673402
2627.589637,2664.741391,2812.782580,-73851.606007
2627.592195,296.082377,3404.947333,-70327.566716
2627.594754,-296.082377,-1776.494261,-73545.167808
2627.597313,-2072.576638,-148.041188,-75230.577904
2627.599872,2072.576638,5181.441594,-74464.482406
2627.602430,-444.123565,7846.182985,-72012.976812
2627.604989,-10955.047942,5033.400406,-73851.606007
2627.607552,-10510.924376,7994.224174,-74464.482406
2627.610115,-7254.018232,10214.842000,-73698.386908
2627.612679,7105.977043,7550.100608,-73851.606007
2627.615242,4737.318029,-1924.535449,-73851.606007
2627.617805,-5625.565159,6069.688724,-71859.757712
2627.620368,-2664.741391,-2812.782580,-75230.577904
2627.622931,-1628.453072,-4293.194464,-73851.606007
2627.625494,2072.576638,1776.494261,-71706.538613
2627.628057,5773.606348,1184.329507,-73391.948708
2627.630621,7550.100608,-5181.441594,-77988.521696
2627.633184,3404.947333,-888.247130,-71553.319513
2627.635747,-2220.617826,1480.411884,-71859.757712
2627.638310,-444.123565,-2664.741391,-75843.454302
2627.640873,6365.771101,-10214.842000,-75843.454302
2627.643436,11251.130318,0.000000,-68948.594820
2627.645999,7254.018232,-4293.194464,-73698.386908
2627.648563,-1776.494261,-2960.823768,-76303.111601
2627.651126,-5773.606348,-1776.494261,-74464.482406
2627.653689,-888.247130,4145.153275,-70480.785816
2627.656252,1924.535449,1628.453072,-72472.634111
2627.658815,13471.748144,-4145.153275,-75537.016103
2627.661378,1184.329507,4885.359217,-72166.195912
2627.663941,-4737.318029,1776.494261,-73238.729609
2627.666505,5477.523971,-3256.906145,-76609.549800
2627.669068,4145.153275,-2812.782580,-72625.853210
2627.671631,11991.336260,-3997.112087,-70327.566716
2627.674194,8290.306550,-3108.864956,-72319.415011
2627.676757,7105.977043,-10066.800811,-76915.987999
2627.679320,6513.812290,-8438.347739,-74158.044206
2627.681884,-296.082377,-1628.453072,-72472.634111
2627.684447,-3701.029710,5625.565159,-73545.167808
2627.687010,1480.411884,-2220.617826,-73545.167808
2627.689573,8438.347739,4885.359217,-70634.004916
2627.692136,4737.318029,5181.441594,-72472.634111
2627.694699,-6809.894666,10066.800811,-76609.549800
2627.697262,-3701.029710,-6069.688724,-77069.207099
2627.699826,-4441.235652,296.082377,-69101.813920
2627.702389,-8142.265362,3552.988522,-70940.443115
2627.704952,-296.082377,2960.823768,-78601.398095
2627.707515,-444.123565,5773.606348,-74158.044206
2627.710082,296.082377,11547.212695,-70174.347617
2627.712648,-2812.782580,-296.082377,-77222.426198
2627.715215,-9178.553681,-1332.370696,-75537.016103
2627.717781,-7402.059420,8586.388927,-70021.128517
2627.720348,-1924.535449,5477.523971,-73391.948708
2627.722915,-444.123565,-2220.617826,-77682.083497
2627.725481,2072.576638,1776.494261,-72932.291410
2627.728048,2960.823768,7105.977043,-69408.252119
2627.730614,148.041188,-2960.823768,-74158.044206
2627.733181,-1036.288319,2072.576638,-74924.139704
2627.735748,-2220.617826,9178.553681,-73085.510509
2627.738314,-14063.912898,1628.453072,-75996.673402
2627.740881,-10658.965565,13175.665768,-73238.729609
2627.743447,-4441.235652,8290.306550,-72779.072310
2627.746014,4885.359217,7994.224174,-71400.100414
2627.748581,8734.430116,-1332.370696,-73851.606007
2627.751147,-3997.112087,4589.276840,-74158.044206
2627.753714,-7550.100608,1924.535449,-75383.797003
2627.756280,0.000000,-3849.070898,-73085.510509
2627.758847,444.123565,148.041188,-71553.319513
2627.761414,7994.224174,1036.288319,-73391.948708
2627.763980,14211.954086,-3701.029710,-75690.235202
2627.766547,3552.988522,2220.617826,-71553.319513
2627.769113,-1480.411884,-296.082377,-73391.948708
2627.771680,-4737.318029,-3701.029710,-75077.358804
2627.774247,2220.617826,-7698.141797,-74464.482406
2627.776813,10807.006753,-148.041188,-70327.566716
2627.779380,8882.471304,-4293.194464,-74464.482406
2627.781946,3108.864956,-1332.370696,-75230.577904
2627.784513,-296.082377,888.247130,-73698.386908
2627.787080,-444.123565,148.041188,-72012.976812
2627.789646,1036.288319,-3404.947333,-73851.606007
2627.792213,4441.235652,1184.329507,-74158.044206
2627.794779,-2072.576638,-1628.453072,-73698.386908
2627.797346,-740.205942,2220.617826,-74158.044206
2627.799913,3256.906145,296.082377,-74158.044206
2627.802479,7105.977043,-2664.741391,-73238.729609
2627.805046,7254.018232,-6365.771101,-73238.729609
2627.807612,5773.606348,-9178.553681,-74924.139704
2627.810179,5625.565159,-5329.482782,-74617.701505
2627.812704,5329.482782,-7105.977043,-74770.920605
2627.815229,-740.205942,-3552.988522,-72625.853210
2627.817754,-3701.029710,2220.617826,-72932.291410
2627.820279,6365.771101,1776.494261,-73085.510509
2627.822804,8290.306550,1036.288319,-71859.757712
2627.825329,-2220.617826,10658.965565,-71553.319513
2627.827854,-5477.523971,2072.576638,-78907.836294
2627.830378,-4737.318029,-2664.741391,-74311.263306
2627.832903,-2960.823768,5033.400406,-66956.746525
2627.835428,-888.247130,1924.535449,-72932.291410
2627.837953,1036.288319,2368.659014,-78294.959896
2627.840478,3256.906145,9622.677246,-72319.415011
2627.843003,-2516.700203,7698.141797,-70940.443115
2627.845528,-5921.647536,4737.318029,-75843.454302
2627.848053,-10510.924376,-3849.070898,-76456.330700
2627.850578,-4441.235652,8882.471304,-69561.471218
2627.853103,3256.906145,3404.947333,-73851.606007
2627.855628,3108.864956,444.123565,-76915.987999
2627.858153,-148.041188,4885.359217,-72012.976812
2627.860678,-2960.823768,-888.247130,-71859.757712
2627.863203,-2664.741391,148.041188,-74464.482406
2627.865728,-2960.823768,2960.823768,-74924.139704
2627.868253,-6069.688724,9918.759623,-72166.195912
2627.870778,-11399.171507,12731.542202,-72932.291410
2627.873302,-8142.265362,8142.265362,-75996.673402
2627.875827,2072.576638,2516.700203,-73085.510509
2627.878352,5329.482782,1628.453072,-70480.785816
2627.880877,-5181.441594,8290.306550,-73698.386908
2627.883402,-7698.141797,-3552.988522,-79673.931792
2627.885927,-888.247130,-4737.318029,-73391.948708
2627.888452,1332.370696,2960.823768,-67876.061123
2627.890977,4885.359217,-888.247130,-73391.948708
2627.893502,11991.336260,-7402.059420,-77682.083497
2627.896027,8586.388927,6069.688724,-70174.347617
2627.898552,-5181.441594,-1776.494261,-75383.797003
2627.901077,-6069.688724,-5921.647536,-78601.398095
2627.903602,4885.359217,-5921.647536,-72319.415011
2627.906127,12435.459826,-296.082377,-66650.308326
2627.908652,11547.212695,-8438.347739,-75843.454302
2627.911177,5625.565159,-1924.535449,-77988.521696
2627.913713,-5033.400406,1480.411884,-73085.510509
2627.916249,-2812.782580,2960.823768,-70787.224015
2627.918786,1628.453072,-8438.347739,-75537.016103
2627.921322,6957.935855,3997.112087,-71246.881314
2627.923859,0.000000,4589.276840,-71859.757712
2627.926395,1480.411884,-3108.864956,-76149.892501
2627.928932,4441.235652,1480.411884,-73391.948708
2627.931468,7846.182985,-4885.359217,-72472.634111
2627.934005,10658.965565,-3256.906145,-72319.415011
2627.936541,5477.523971,-15988.448347,-75077.358804
2627.939078,5625.565159,-2516.700203,-71859.757712
2627.941614,5625.565159,-5773.606348,-74617.701505
2627.944150,-4885.359217,148.041188,-76609.549800
2627.946687,-1776.494261,740.205942,-73238.729609
2627.949223,7846.182985,-4885.359217,-71706.538613
2627.951760,2960.823768,9030.512492,-70327.566716
2627.954296,-5773.606348,10066.800811,-76303.111601
2627.956833,-5033.400406,-2072.576638,-79520.712692
2627.959369,-4293.194464,2220.617826,-72472.634111
2627.961906,-6365.771101,5921.647536,-68795.375720
2627.964442,-740.205942,-2368.659014,-74311.263306
2627.966978,2220.617826,296.082377,-76303.111601
2627.969515,296.082377,12583.501014,-71706.538613
2627.972051,-4885.359217,5625.565159,-75996.673402
2627.974588,-7846.182985,296.082377,-76303.111601
2627.977124,-10214.842000,3552.988522,-70480.785816
2627.979661,-1776.494261,5625.565159,-70327.566716
2627.982197,1924.535449,-2664.741391,-76149.892501
2627.984734,3108.864956,4293.194464,-75077.358804
2627.987270,-148.041188,4293.194464,-72779.072310
2627.989806,-1776.494261,-2664.741391,-73391.948708
2627.992343,-2368.659014,4145.153275,-72319.415011
2627.994879,-4589.276840,9474.636058,-73545.167808
2627.997416,-8882.471304,11251.130318,-74924.139704
2627.999952,-9178.553681,8438.347739,-75383.797003
2628.002489,-592.164754,8586.388927,-72625.853210
2628.005025,1628.453072,-2960.823768,-72472.634111
2628.007562,-4441.235652,6513.812290,-72625.853210
2628.010098,-5921.647536,-1628.453072,-76915.987999
2628.012634,1628.453072,-2812.782580,-75230.577904
2628.015138,3552.988522,3552.988522,-70021.128517
2628.017641,6069.688724,-6661.853478,-74770.920605
2628.020145,7105.977043,-6217.729913,-75383.797003
2628.022649,4737.318029,1628.453072,-71553.319513
2628.025152,-2812.782580,2368.659014,-72779.072310
2628.027656,-4885.359217,-3552.988522,-77375.645298
2628.030159,6365.771101,-5625.565159,-74004.825107
2628.032663,12139.377449,-1776.494261,-68029.280222
2628.035166,12435.459826,-7105.977043,-72472.634111
2628.037670,3997.112087,-3404.947333,-77375.645298
2628.040173,-3997.112087,2220.617826,-74311.263306
2628.042677,888.247130,2072.576638,-72625.853210
2628.045180,1184.329507,-4293.194464,-73238.729609
2628.047684,9622.677246,888.247130,-72166.195912
2628.050187,3108.864956,5773.606348,-72166.195912
2628.052691,-2368.659014,-4441.235652,-75843.454302
2628.055194,5329.482782,2960.823768,-74004.825107
2628.057698,3404.947333,-6661.853478,-74617.701505
2628.060201,9030.512492,-3404.947333,-71400.100414
2628.062705,7254.018232,-5625.565159,-70634.004916
2628.065208,7550.100608,-9474.636058,-74464.482406
2628.067712,888.247130,-1776.494261,-74770.920605
2628.070215,-5033.400406,2368.659014,-75843.454302
2628.072719,888.247130,740.205942,-73851.606007
2628.075222,7698.141797,-1628.453072,-70327.566716
2628.077726,1036.288319,6661.853478,-70940.443115
2628.080229,-5625.565159,5773.606348,-76915.987999
2628.082733,-5033.400406,2960.823768,-78601.398095
2628.085237,-4441.235652,3404.947333,-70940.443115
2628.087740,-4885.359217,-444.123565,-71400.100414
2628.090244,148.041188,-740.205942,-76303.111601
2628.092747,740.205942,3701.029710,-74464.482406
2628.095251,-2812.782580,11695.253884,-71553.319513
2628.097754,-3552.988522,6513.812290,-76456.330700
2628.100258,-8586.388927,888.247130,-75843.454302
2628.102761,-3997.112087,4441.235652,-69408.252119
2628.105265,5477.523971,3256.906145,-70021.128517
2628.107768,-888.247130,-1184.329507,-75230.577904
2628.110272,-6661.853478,-296.082377,-76149.892501
2628.112775,444.123565,5625.565159,-72319.415011
2628.115295,-5477.523971,-2960.823768,-72779.072310
2628.117815,148.041188,7994.224174,-71093.662214
2628.120335,-3997.112087,4885.359217,-74158.044206
2628.122855,-10214.842000,15988.448347,-74464.482406
2628.125375,-1036.288319,8142.265362,-75843.454302
2628.127895,1628.453072,7994.224174,-72472.634111
2628.130415,-1776.494261,-1332.370696,-71706.538613
2628.132935,-6809.894666,2960.823768,-78601.398095
2628.135455,-740.205942,-6069.688724,-76762.768900
2628.137975,5329.482782,3256.906145,-71553.319513
2628.140495,2072.576638,3108.864956,-70634.004916
2628.143015,8882.471304,-5625.565159,-76303.111601
2628.145535,8142.265362,-8586.388927,-75077.358804
2628.148055,-296.082377,4589.276840,-69101.813920
2628.150575,-3552.988522,-296.082377,-74464.482406
2628.153095,-740.205942,-3997.112087,-78601.398095
2628.155615,9622.677246,-2516.700203,-70940.443115
2628.158135,13323.706956,-6513.812290,-69408.252119
2628.160656,5329.482782,-4589.276840,-75690.235202
2628.163176,-4885.359217,-4293.194464,-77528.864398
2628.165696,-5181.441594,6661.853478,-72625.853210
2628.168216,3108.864956,-3256.906145,-73391.948708
2628.170736,4589.276840,-888.247130,-72625.853210
2628.173256,0.000000,1628.453072,-72472.634111
2628.175776,7698.141797,296.082377,-73085.510509
2628.178296,1332.370696,888.247130,-75690.235202
2628.180816,740.205942,-7994.224174,-75843.454302
2628.183336,11547.212695,-1184.329507,-69408.252119
2628.185856,9326.594869,-11399.171507,-72932.291410
2628.188376,8438.347739,-12139.377449,-74311.263306
2628.190896,3849.070898,-4293.194464,-73238.729609
2628.193416,-5625.565159,6365.771101,-74004.825107
2628.195936,-2960.823768,3108.864956,-76149.892501
2628.198456,10658.965565,-3552.988522,-72932.291410
2628.200976,4885.359217,3701.029710,-68488.937521
2628.203496,-5033.400406,2812.782580,-76609.549800
2628.206016,-3404.947333,5181.441594,-77528.864398
2628.208536,-4885.359217,5773.606348,-72012.976812
2628.211056,-5921.647536,3701.029710,-70480.785816
2628.213576,1924.535449,-2960.823768,-75690.235202
2628.216109,1628.453072,5773.606348,-72625.853210
2628.218643,0.000000,11251.130318,-70634.004916
2628.221177,-3701.029710,3997.112087,-76609.549800
2628.223710,-13027.624579,-148.041188,-77528.864398
2628.226244,-4293.194464,7994.224174,-70174.347617
2628.228777,3552.988522,3108.864956,-69867.909418
2628.231311,-1480.411884,-592.164754,-75537.016103
2628.233845,-4145.153275,-1776.494261,-76915.987999
2628.236378,-1480.411884,6217.729913,-72166.195912
2628.238912,-6809.894666,148.041188,-73851.606007
2628.241445,-3552.988522,6217.729913,-72779.072310
2628.243979,-7846.182985,5181.441594,-73698.386908
2628.246513,-8882.471304,12287.418637,-73545.167808
2628.249046,296.082377,9622.677246,-74617.701505
2628.251580,4293.194464,3256.906145,-73851.606007
2628.254113,-8142.265362,7846.182985,-71706.538613
2628.256647,-5477.523971,-1332.370696,-75690.235202
2628.259180,1184.329507,-8882.471304,-75690.235202
2628.261714,1184.329507,740.205942,-70480.785816
2628.264248,6365.771101,5625.565159,-71246.881314
2628.266781,10510.924376,-6957.935855,-77835.302597
2628.269315,7846.182985,-7402.059420,-74004.825107
2628.271848,1924.535449,5181.441594,-68795.375720
2628.274382,-3256.906145,-148.041188,-76456.330700
2628.276916,3256.906145,-7105.977043,-76915.987999
2628.279449,9326.594869,1036.288319,-69408.252119
2628.281983,13915.871710,-4737.318029,-71093.662214
2628.284516,3404.947333,-7846.182985,-76915.987999
2628.287050,-1036.288319,444.123565,-74770.920605
2628.289584,296.082377,5625.565159,-71553.319513
2628.292117,-2812.782580,-2812.782580,-74617.701505
2628.294651,4145.153275,-2812.782580,-73698.386908
2628.297184,5033.400406,4145.153275,-70327.566716
2628.299718,-2368.659014,-1332.370696,-75383.797003
2628.302252,7105.977043,-3997.112087,-75843.454302
2628.304785,9474.636058,444.123565,-72319.415011
2628.307319,7550.100608,-13175.665768,-73698.386908
2628.309852,12139.377449,-11547.212695,-72319.415011
2628.312386,3108.864956,-8290.306550,-73851.606007
2628.314919,-4737.318029,4293.194464,-74004.825107
2628.317464,-4737.318029,0.000000,-76915.987999
2628.320009,7105.977043,1036.288319,-72932.291410
2628.322554,5773.606348,5329.482782,-68029.280222
2628.325099,-3552.988522,11103.089130,-72779.072310
2628.327644,-6513.812290,-3701.029710,-80593.246390
2628.330189,-5625.565159,3256.906145,-74311.263306
2628.332734,-8290.306550,7994.224174,-69714.690318
2628.335279,-592.164754,2664.741391,-74464.482406
2628.337824,3108.864956,-3849.070898,-75690.235202
2628.340369,4293.194464,9474.636058,-69714.690318
2628.342914,1184.329507,9918.759623,-73085.510509
2628.345459,-10066.800811,592.164754,-79367.493593
2628.348005,-9622.677246,5033.400406,-71246.881314
2628.350550,1924.535449,5181.441594,-69714.690318
2628.353095,-2368.659014,-1924.535449,-73391.948708
2628.355640,2960.823768,-148.041188,-75077.358804
2628.358185,2960.823768,10066.800811,-72319.415011
2628.360730,-6809.894666,-2664.741391,-75996.673402
2628.363275,-2812.782580,4885.359217,-73238.729609
2628.365820,-11103.089130,1924.535449,-74311.263306
2628.368365,-9918.759623,14508.036463,-73391.948708
2628.370910,-296.082377,6957.935855,-75383.797003
2628.373455,4589.276840,6957.935855,-73238.729609
2628.376000,-5329.482782,7254.018232,-71553.319513
2628.378545,-7105.977043,-2812.782580,-75690.235202
2628.381090,592.164754,-4589.276840,-75077.358804
2628.383635,1184.329507,-3404.947333,-71859.757712
2628.386180,1776.494261,2516.700203,-73238.729609
2628.388725,10066.800811,-7550.100608,-78754.617194
2628.391270,5329.482782,-1480.411884,-72319.415011
2628.393815,-1332.370696,3701.029710,-69408.252119
2628.396360,-2664.741391,-3108.864956,-77069.207099
2628.398905,1628.453072,-8142.265362,-78141.740796
2628.401450,13175.665768,1628.453072,-67876.061123
2628.403995,10658.965565,-2516.700203,-72166.195912
2628.406540,2072.576638,-9918.759623,-77835.302597
2628.409085,-888.247130,-888.247130,-74004.825107
2628.411630,296.082377,3997.112087,-71093.662214
2628.414175,1184.329507,-3256.906145,-74924.139704
2628.416720,-592.164754,-4589.276840,-73698.386908
2628.419230,2516.700203,2812.782580,-71859.757712
2628.421744,6809.894666,148.041188,-75996.673402
2628.424258,2072.576638,-8882.471304,-76609.549800
2628.426772,14656.077652,-592.164754,-69867.909418
2628.429286,10510.924376,-15988.448347,-74158.044206
2628.431800,5773.606348,-8142.265362,-74617.701505
2628.434314,-3404.947333,-6809.894666,-73545.167808
2628.436828,-7846.182985,10214.842000,-73698.386908
2628.439342,-148.041188,740.205942,-77528.864398
2628.441856,8586.388927,-592.164754,-72012.976812
2628.444370,-592.164754,10658.965565,-67876.061123
2628.446884,-5033.400406,1628.453072,-77988.521696
2628.449398,-8290.306550,-1480.411884,-79520.712692
2628.451912,-8142.265362,7105.977043,-71093.662214
2628.454426,-5033.400406,6661.853478,-70174.347617
2628.456940,2220.617826,-1036.288319,-76149.892501
2628.459454,2516.700203,2516.700203,-72472.634111
2628.461968,1628.453072,14804.118840,-68795.375720
2628.464482,-1628.453072,3108.864956,-77835.302597
2628.466996,-9918.759623,-2220.617826,-78754.617194
2628.469510,740.205942,10066.800811,-68642.156621
2628.472024,3404.947333,-888.247130,-70634.004916
2628.474538,4441.235652,-3108.864956,-76303.111601
2628.477052,2664.741391,5477.523971,-75230.577904
2628.479566,-3552.988522,1184.329507,-73545.167808
2628.482080,-5329.482782,5921.647536,-72319.415011
2628.484594,-8438.347739,3849.070898,-75077.358804
2628.487108,-10214.842000,10214.842000,-72166.195912
2628.489622,592.164754,5477.523971,-73238.729609
2628.492136,5329.482782,9178.553681,-74004.825107
2628.494650,-4441.235652,6661.853478,-72472.634111
2628.497164,-6069.688724,5329.482782,-73085.510509
2628.499678,148.041188,-11103.089130,-76303.111601
2628.502192,2664.741391,-1480.411884,-71859.757712
2628.504706,4145.153275,592.164754,-71859.757712
2628.507220,9030.512492,-3404.947333,-77069.207099
2628.509734,5477.523971,-6513.812290,-75537.016103
2628.512248,-1628.453072,-1332.370696,-71553.319513
2628.514762,-4589.276840,148.041188,-73851.606007
2628.517276,2960.823768,-4737.318029,-75843.454302
2628.519806,8290.306550,444.123565,-71859.757712
2628.522336,9474.636058,-5921.647536,-72012.976812
2628.524865,6365.771101,-5329.482782,-75077.358804
2628.527395,-296.082377,-5329.482782,-75996.673402
2628.529925,1184.329507,2072.576638,-72625.853210
2628.532454,3552.988522,5773.606348,-71246.881314
2628.534984,888.247130,-6809.894666,-76609.549800
2628.537513,0.000000,-888.247130,-73238.729609
2628.540043,1924.535449,4145.153275,-73085.510509
2628.542573,4441.235652,-7846.182985,-77835.302597
2628.545102,13619.789333,-4441.235652,-72779.072310
2628.547632,14508.036463,-11547.212695,-69867.909418
2628.550162,9918.759623,-8290.306550,-71553.319513
2628.552691,-592.164754,-5477.523971,-75996.673402
2628.555221,-8142.265362,6513.812290,-76149.892501
2628.557751,-296.082377,740.205942,-74464.482406
2628.560280,10955.047942,2516.700203,-70480.785816
2628.562810,1184.329507,10510.924376,-69714.690318
2628.565339,-3404.947333,-4145.153275,-76303.111601
2628.567869,-3849.070898,5625.565159,-74617.701505
2628.570399,-8142.265362,7994.224174,-72779.072310
2628.572928,-6217.729913,2960.823768,-73085.510509
2628.575458,1776.494261,-1628.453072,-74924.139704
2628.577988,1924.535449,5033.400406,-71093.662214
2628.580517,148.041188,9770.718434,-71553.319513
2628.583047,-5921.647536,2664.741391,-77682.083497
2628.585577,-9918.759623,3849.070898,-75230.577904
2628.588106,-148.041188,2664.741391,-71400.100414
2628.590636,0.000000,592.164754,-71859.757712
2628.593165,296.082377,-2072.576638,-74770.920605
2628.595695,-1628.453072,3849.070898,-74158.044206
2628.598225,-6069.688724,3108.864956,-75996.673402
2628.600766,-5921.647536,6513.812290,-73698.386908
2628.603306,-8290.306550,5477.523971,-73085.510509
2628.605847,-3997.112087,9622.677246,-72779.072310
2628.608388,1036.288319,6069.688724,-74311.263306
2628.610929,-2812.782580,8142.265362,-74158.044206
2628.613470,-7402.059420,10807.006753,-72625.853210
2628.616010,-5033.400406,-5329.482782,-76762.768900
2628.618551,2368.659014,-5477.523971,-72625.853210
2628.621092,7698.141797,0.000000,-68642.156621
2628.623633,8734.430116,-1628.453072,-73851.606007
2628.626174,12287.418637,-8586.388927,-78294.959896
2628.628714,1776.494261,-2812.782580,-72625.853210
2628.631255,-4293.194464,2960.823768,-71246.881314
2628.633796,444.123565,-1332.370696,-75383.797003
2628.636337,4589.276840,-6513.812290,-74311.263306
2628.638878,15100.201217,-296.082377,-69867.909418
2628.641418,9770.718434,-888.247130,-74158.044206
2628.643959,-2516.700203,-6809.894666,-77375.645298
2628.646500,1332.370696,-1036.288319,-73851.606007
2628.649041,-1332.370696,4145.153275,-71246.881314
2628.651582,2072.576638,-4737.318029,-75383.797003
2628.654123,3849.070898,2960.823768,-71093.662214
2628.656663,1480.411884,3108.864956,-70940.443115
2628.659204,6809.894666,-2072.576638,-76762.768900
2628.661745,6513.812290,-12435.459826,-77988.521696
2628.664286,12879.583391,-6661.853478,-69867.909418
2628.666827,10362.883188,-10362.883188,-69408.252119
2628.669367,-1628.453072,-8438.347739,-75843.454302
2628.671908,-7550.100608,2516.700203,-76303.111601
2628.674449,-1924.535449,6661.853478,-72779.072310
2628.676990,12139.377449,4293.194464,-71246.881314
2628.679531,2516.700203,2516.700203,-72625.853210
2628.682071,-4145.153275,2516.700203,-74311.263306
2628.684612,-5625.565159,2368.659014,-74617.701505
2628.687153,-11251.130318,6809.894666,-74004.825107
2628.689694,-5773.606348,4589.276840,-74464.482406
2628.692235,1036.288319,1776.494261,-73391.948708
2628.694775,5329.482782,7402.059420,-69867.909418
2628.697316,3849.070898,3701.029710,-72932.291410
2628.699857,-4885.359217,3256.906145,-75537.016103
2628.702408,-11103.089130,4737.318029,-75077.358804
2628.704959,-2220.617826,1480.411884,-73698.386908
2628.707509,2812.782580,1184.329507,-71706.538613
2628.710060,4589.276840,2664.741391,-71246.881314
2628.712611,1628.453072,1480.411884,-74464.482406
2628.715162,-1924.535449,3849.070898,-76149.892501
2628.717713,-7698.141797,4441.235652,-74464.482406
2628.720264,-11251.130318,9622.677246,-72779.072310
2628.722814,-5921.647536,10066.800811,-73238.729609
2628.725365,2368.659014,1776.494261,-74311.263306
2628.727916,-888.247130,9178.553681,-71246.881314
2628.730467,-4737.318029,10807.006753,-74770.920605
2628.733018,-2368.659014,-1184.329507,-77835.302597
2628.735568,888.247130,-7105.977043,-73085.510509
2628.738119,2220.617826,-1776.494261,-69101.813920
2628.740670,5329.482782,-8586.388927,-75230.577904
2628.743221,8586.388927,-5773.606348,-78141.740796
2628.745772,5625.565159,148.041188,-71706.538613
2628.748323,-2960.823768,-1184.329507,-74464.482406
2628.750873,-444.123565,-444.123565,-75537.016103
2628.753424,4293.194464,-8290.306550,-72472.634111
2628.755975,9030.512492,592.164754,-68948.594820
2628.758526,10214.842000,-3256.906145,-76303.111601
2628.761077,1480.411884,-9474.636058,-78294.959896
2628.763627,-2220.617826,-444.123565,-71246.881314
2628.766178,4589.276840,1924.535449,-70940.443115
2628.768729,3552.988522,3997.112087,-73238.729609
2628.771280,1184.329507,-4589.276840,-72012.976812
2628.773831,1776.494261,-1628.453072,-73851.606007
2628.776382,5033.400406,-1480.411884,-77375.645298
2628.778932,9622.677246,-13323.706956,-76915.987999
2628.781483,17468.860231,-5921.647536,-68182.499322
2628.784034,12287.418637,-11103.089130,-70174.347617
2628.786585,-2516.700203,-2812.782580,-75537.016103
2628.789136,-4737.318029,3701.029710,-76915.987999
2628.791686,444.123565,3256.906145,-73238.729609
2628.794237,3997.112087,5921.647536,-71706.538613
2628.796788,-1776.494261,9770.718434,-72625.853210
2628.799339,-148.041188,-3404.947333,-74770.920605
2628.801890,-4145.153275,6661.853478,-71859.757712
2628.804449,-6809.894666,7994.224174,-73238.729609
2628.807008,-4293.194464,2960.823768,-76303.111601
2628.809567,-1776.494261,444.123565,-74464.482406
2628.812126,888.247130,3701.029710,-70634.004916
2628.814685,0.000000,4145.153275,-74464.482406
2628.817244,-1628.453072,6957.935855,-75077.358804
2628.819803,-5477.523971,7105.977043,-74004.825107
2628.822362,592.164754,740.205942,-74004.825107
2628.824921,1480.411884,-2220.617826,-73238.729609
2628.827480,-1776.494261,1480.411884,-72166.195912
2628.830039,-3108.864956,5033.400406,-74311.263306
2628.832598,-5181.441594,2220.617826,-75690.235202
2628.835157,-6217.729913,11991.336260,-72932.291410
2628.837716,-3997.112087,8290.306550,-73085.510509
2628.840275,740.205942,7105.977043,-73238.729609
2628.842834,-888.247130,3108.864956,-73238.729609
2628.845394,-6069.688724,9770.718434,-73698.386908
2628.847953,-2812.782580,1036.288319,-75843.454302
2628.850512,2072.576638,-5773.606348,-73545.167808
2628.853071,2072.576638,592.164754,-68029.280222
2628.855630,9622.677246,-7254.018232,-74004.825107
2628.858189,7994.224174,-8586.388927,-76762.768900
2628.860748,4293.194464,296.082377,-72472.634111
2628.863307,-2960.823768,3108.864956,-72625.853210
2628.865866,-5625.565159,-5181.441594,-77835.302597
2628.868425,6957.935855,-1776.494261,-71093.662214
2628.870984,13767.830521,-1332.370696,-69255.033019
2628.873543,7550.100608,-2516.700203,-75077.358804
2628.876102,-592.164754,-5625.565159,-78448.178995
2628.878661,-3256.906145,1924.535449,-73851.606007
2628.881220,740.205942,148.041188,-72012.976812
2628.883779,3701.029710,740.205942,-73851.606007
2628.886338,-740.205942,-3701.029710,-73698.386908
2628.888897,7550.100608,1332.370696,-70480.785816
2628.891456,6069.688724,-2220.617826,-77069.207099
2628.894015,8586.388927,-12139.377449,-78448.178995
2628.896574,12139.377449,-9178.553681,-69867.909418
2628.899134,5477.523971,-10955.047942,-69255.033019
2628.901693,-7402.059420,444.123565,-74617.701505
2628.904252,-5329.482782,-1776.494261,-78754.617194
2628.906780,7846.182985,7846.182985,-71706.538613
2628.909308,7994.224174,9474.636058,-69408.252119
2628.911836,-148.041188,9030.512492,-73851.606007
2628.914364,-3108.864956,-12731.542202,-78141.740796
2628.916892,-7254.018232,6513.812290,-68642.156621
2628.919420,-8290.306550,8586.388927,-74004.825107
2628.921948,-1036.288319,2220.617826,-78907.836294
2628.924476,1480.411884,3552.988522,-72166.195912
2628.927004,6069.688724,7994.224174,-67263.184724
2628.929532,-1628.453072,2664.741391,-74617.701505
2628.932060,-10362.883188,1924.535449,-77835.302597
2628.934588,-11103.089130,5329.482782,-72472.634111
2628.937116,1628.453072,4589.276840,-73545.167808
2628.939644,3849.070898,-1924.535449,-74158.044206
2628.942172,2516.700203,5773.606348,-70327.566716
2628.944700,-888.247130,5773.606348,-72932.291410
2628.947228,-8438.347739,-296.082377,-78294.959896
2628.949756,-8142.265362,13915.871710,-73238.729609
2628.952284,-7402.059420,5773.606348,-72012.976812
2628.954812,1628.453072,9030.512492,-73698.386908
2628.957340,-4737.318029,-148.041188,-74158.044206
2628.959868,-5773.606348,15396.283594,-71246.881314
2628.962396,1184.329507,-3849.070898,-76762.768900
2628.964924,740.205942,-4293.194464,-73391.948708
2628.967452,888.247130,2072.576638,-70174.347617
2628.969981,8586.388927,-12435.459826,-75230.577904
2628.972509,6661.853478,-10362.883188,-76303.111601
2628.975037,3997.112087,1776.494261,-71706.538613
2628.977565,-1628.453072,2516.700203,-73391.948708
2628.980093,148.041188,148.041188,-75537.016103
2628.982621,7550.100608,-4145.153275,-72932.291410
2628.985149,11547.212695,-444.123565,-69101.813920
2628.987677,3108.864956,-3849.070898,-74158.044206
2628.990205,-1628.453072,-5921.647536,-77069.207099
2628.992733,-1480.411884,-148.041188,-73851.606007
2628.995261,3256.906145,2220.617826,-72319.415011
2628.997789,5477.523971,1036.288319,-72166.195912
2629.000317,5625.565159,-2812.782580,-72319.415011
2629.002845,4441.235652,-1480.411884,-72932.291410
2629.005373,5921.647536,-5921.647536,-77222.426198
2629.007914,10807.006753,-10510.924376,-75843.454302
2629.010455,12435.459826,-7105.977043,-69867.909418
2629.012995,-1628.453072,-8142.265362,-71400.100414
2629.015536,-3108.864956,1184.329507,-74004.825107
2629.018077,3404.947333,2516.700203,-76456.330700
2629.020618,5477.523971,7698.141797,-71400.100414
2629.023158,-3404.947333,10362.883188,-72472.634111
2629.025699,-3701.029710,-1036.288319,-77988.521696
2629.028240,-7994.224174,-2072.576638,-74004.825107
2629.030781,-6809.894666,9622.677246,-67569.622924
2629.033321,-1924.535449,5921.647536,-76915.987999
2629.035862,-740.205942,444.123565,-80286.808190
2629.038403,1776.494261,5329.482782,-70480.785816
2629.040943,-444.123565,6069.688724,-68182.499322
2629.043484,-8586.388927,0.000000,-78141.740796
2629.046025,-9918.759623,2812.782580,-76609.549800
2629.048566,740.205942,6957.935855,-71400.100414
2629.051106,8734.430116,5773.606348,-71553.319513
2629.053647,-2072.576638,-4293.194464,-75383.797003
2629.056188,-592.164754,5477.523971,-71706.538613
2629.058729,-9178.553681,2368.659014,-75537.016103
2629.061269,-14211.954086,5477.523971,-76762.768900
2629.063810,-5625.565159,15100.201217,-71706.538613
2629.066351,2368.659014,3108.864956,-72319.415011
2629.068892,1184.329507,12435.459826,-71706.538613
2629.071432,-6513.812290,1036.288319,-76303.111601
2629.073973,-1924.535449,6957.935855,-72472.634111
2629.076514,2368.659014,-4885.359217,-73851.606007
2629.079055,0.000000,0.000000,-73238.729609
2629.081595,6809.894666,-7550.100608,-74311.263306
2629.084136,14211.954086,-7550.100608,-72625.853210
2629.086677,3997.112087,2220.617826,-70480.785816
2629.089218,888.247130,-3404.947333,-76915.987999
2629.091758,-2812.782580,296.082377,-75690.235202
2629.094299,4441.235652,296.082377,-71859.757712
2629.096840,8882.471304,-1776.494261,-71093.662214
2629.099381,4589.276840,-6217.729913,-75230.577904
2629.101921,1184.329507,-5921.647536,-75230.577904
2629.104462,-2368.659014,3701.029710,-72932.291410
2629.107003,1184.329507,592.164754,-75537.016103
2629.109553,9326.594869,-444.123565,-73391.948708
2629.112104,-296.082377,-1332.370696,-70021.128517
2629.114654,4441.235652,-3256.906145,-72319.415011
2629.117205,4145.153275,-7105.977043,-77682.083497
2629.119755,11547.212695,-8734.430116,-75537.016103
2629.122305,12731.542202,-10510.924376,-70480.785816
2629.124856,-296.082377,-3552.988522,-71400.100414
2629.127406,-5329.482782,-3701.029710,-74924.139704
2629.129957,4441.235652,1628.453072,-73698.386908
2629.132507,3997.112087,8142.265362,-72472.634111
2629.135057,-2960.823768,12879.583391,-75230.577904
2629.137608,-2664.741391,-1036.288319,-77375.645298
2629.140158,-3108.864956,3108.864956,-69714.690318
2629.142709,-6513.812290,6957.935855,-69101.813920
2629.145259,-4145.153275,1036.288319,-76456.330700
2629.147809,1036.288319,3256.906145,-77528.864398
2629.150360,-296.082377,7846.182985,-70940.443115
2629.152910,-3256.906145,3997.112087,-72779.072310
2629.155461,-3849.070898,-740.205942,-75383.797003
2629.158011,-4293.194464,7994.224174,-70634.004916
2629.160561,-148.041188,7698.141797,-72932.291410
2629.163112,5181.441594,-2220.617826,-76915.987999
2629.165662,-1332.370696,3404.947333,-73391.948708
2629.168213,-2368.659014,3256.906145,-72472.634111
2629.170763,-8438.347739,4737.318029,-74004.825107
2629.173313,-12139.377449,3256.906145,-76303.111601
2629.175864,2368.659014,18061.024985,-71246.881314
2629.178414,1036.288319,3701.029710,-74004.825107
2629.180964,-3701.029710,8290.306550,-73545.167808
2629.183515,-4293.194464,4885.359217,-73851.606007
2629.186065,1628.453072,-3256.906145,-74617.701505
2629.188616,-1036.288319,-1332.370696,-72625.853210
2629.191166,3997.112087,-2220.617826,-73698.386908
2629.193716,8290.306550,-9474.636058,-75230.577904
2629.196267,9918.759623,-7402.059420,-72012.976812
2629.198817,2516.700203,3256.906145,-70940.443115
2629.201368,-3997.112087,-3552.988522,-76915.987999
2629.203918,-740.205942,2220.617826,-74617.701505
2629.206468,6365.771101,-1776.494261,-71859.757712
2629.209019,12583.501014,-2516.700203,-71706.538613
2629.211577,6217.729913,-5033.400406,-74311.263306
2629.214136,592.164754,-9918.759623,-75230.577904
2629.216695,1184.329507,6365.771101,-71553.319513
2629.219253,296.082377,-444.123565,-75996.673402
2629.221812,3256.906145,-4145.153275,-73851.606007
2629.224371,2664.741391,-1628.453072,-70480.785816
2629.226929,6661.853478,-7254.018232,-74311.263306
2629.229488,13027.624579,-7846.182985,-77222.426198
2629.232046,12583.501014,-8882.471304,-73698.386908
2629.234605,-2960.823768,-6661.853478,-70940.443115
2629.237164,-7698.141797,-2664.741391,-73545.167808
2629.239722,1480.411884,-2220.617826,-75843.454302
2629.242281,3701.029710,6957.935855,-71553.319513
2629.244839,444.123565,14211.954086,-72166.195912
2629.247398,-2664.741391,592.164754,-79520.712692
2629.249957,-5625.565159,2516.700203,-71859.757712
2629.252515,-7994.224174,5329.482782,-66956.746525
2629.255074,-6217.729913,1776.494261,-75383.797003
2629.257632,-1480.411884,296.082377,-80133.589091
2629.260191,296.082377,7254.018232,-72932.291410
2629.262750,296.082377,9918.759623,-69101.813920
2629.265308,-3552.988522,-888.247130,-75383.797003
2629.267867,-4589.276840,1776.494261,-74924.139704
2629.270426,1628.453072,8142.265362,-71859.757712
2629.272984,-148.041188,740.205942,-74770.920605
2629.275543,-3701.029710,-1184.329507,-75230.577904
2629.278101,-592.164754,7698.141797,-72166.195912
2629.280660,-7846.182985,3849.070898,-73545.167808
2629.283219,-5921.647536,9474.636058,-74311.263306
2629.285777,-1776.494261,8438.347739,-72625.853210
2629.288336,-740.205942,9030.512492,-71859.757712
2629.290894,-3849.070898,11991.336260,-74158.044206
2629.293453,-3256.906145,-3256.906145,-78141.740796
2629.296012,888.247130,-1184.329507,-71553.319513
2629.298570,5329.482782,-1924.535449,-70480.785816
2629.301129,3701.029710,-5477.523971,-75537.016103
2629.303687,13619.789333,-9178.553681,-76303.111601
2629.306246,7994.224174,-2960.823768,-71093.662214
2629.308805,-1036.288319,-888.247130,-72625.853210
2629.311363,-2220.617826,-1184.329507,-77375.645298
2629.313929,-1332.370696,-2368.659014,-75077.358804
2629.316495,7105.977043,4737.318029,-68795.375720
2629.319060,15396.283594,-9030.512492,-74617.701505
2629.321626,4293.194464,-3997.112087,-75383.797003
2629.324192,-1480.411884,740.205942,-72319.415011
2629.326758,-1776.494261,444.123565,-73391.948708
2629.329323,1924.535449,-2220.617826,-77222.426198
2629.331889,1480.411884,-2220.617826,-73391.948708
2629.334455,4293.194464,-296.082377,-68488.937521
2629.337020,10955.047942,-3849.070898,-73238.729609
2629.339586,9918.759623,-14063.912898,-78448.178995
2629.342152,8142.265362,-6217.729913,-72319.415011
2629.344718,-2812.782580,-3701.029710,-70174.347617
2629.347283,-7550.100608,-1332.370696,-76762.768900
2629.349849,7846.182985,-6069.688724,-75690.235202
2629.352415,5625.565159,13915.871710,-68029.280222
2629.354980,-3849.070898,15692.365970,-73085.510509
2629.357546,-740.205942,-3108.864956,-80899.684589
2629.360112,-7550.100608,5033.400406,-72012.976812
2629.362678,-5329.482782,9770.718434,-64964.898230
2629.365243,-3849.070898,-2072.576638,-79367.493593
2629.367809,-2516.700203,-148.041188,-79367.493593
2629.370375,3108.864956,11991.336260,-68795.375720
2629.372940,-296.082377,6513.812290,-71093.662214
2629.375506,-6069.688724,-2220.617826,-77375.645298
2629.378072,-5773.606348,6513.812290,-72319.415011
2629.380638,-888.247130,3552.988522,-71093.662214
2629.383203,1480.411884,444.123565,-75537.016103
2629.385769,-4885.359217,-1628.453072,-76609.549800
2629.388335,-2960.823768,10658.965565,-70634.004916
2629.390900,-5921.647536,7254.018232,-74311.263306
2629.393466,-6809.894666,5477.523971,-74311.263306
2629.396032,-1332.370696,9622.677246,-70480.785816
2629.398598,-3256.906145,11843.295072,-72779.072310
2629.401163,-6809.894666,6661.853478,-78141.740796
2629.403729,-740.205942,-888.247130,-76456.330700
2629.406295,888.247130,-3701.029710,-69408.252119
2629.408860,296.082377,-592.164754,-68795.375720
2629.411426,5921.647536,-10510.924376,-77682.083497
2629.413992,10510.924376,-7846.182985,-73851.606007
2629.416558,3256.906145,3256.906145,-69101.813920
2629.419128,-2072.576638,-1924.535449,-76762.768900
2629.421699,-3108.864956,-4145.153275,-77835.302597
2629.424269,3552.988522,3701.029710,-68335.718422
2629.426840,9770.718434,1036.288319,-69561.471218
2629.429410,9474.636058,-8290.306550,-78294.959896
2629.431980,6809.894666,-3552.988522,-74924.139704
2629.434551,-2960.823768,3997.112087,-70174.347617
2629.437121,-5773.606348,-6069.688724,-76456.330700
2629.439691,6661.853478,-3404.947333,-75230.577904
2629.442262,3108.864956,3701.029710,-68642.156621
2629.444832,9030.512492,-3997.112087,-71246.881314
2629.447403,15396.283594,-10214.842000,-76915.987999
2629.449973,7402.059420,-12879.583391,-76762.768900
2629.452543,3552.988522,-444.123565,-68488.937521
2629.455114,-5625.565159,-8586.388927,-74158.044206
2629.457684,1628.453072,740.205942,-76149.892501
2629.460254,8586.388927,7402.059420,-69408.252119
2629.462825,-148.041188,19985.560434,-70021.128517
2629.465395,-2220.617826,1036.288319,-81665.780087
2629.467966,-4737.318029,296.082377,-75690.235202
2629.470536,-8290.306550,10362.883188,-64964.898230
2629.473106,-3997.112087,1332.370696,-72779.072310
2629.475677,-3552.988522,-2812.782580,-80746.465489
2629.478247,1184.329507,6069.688724,-73238.729609
2629.480817,296.082377,9770.718434,-68948.594820
2629.483388,-3701.029710,148.041188,-76762.768900
2629.485958,-2664.741391,-1480.411884,-74924.139704
2629.488529,-2960.823768,15988.448347,-67722.842023
2629.491099,148.041188,-7846.182985,-77069.207099
2629.493669,0.000000,-148.041188,-77375.645298
2629.496240,-7105.977043,5921.647536,-72625.853210
2629.498810,-6809.894666,12139.377449,-70787.224015
2629.501380,-10510.924376,4145.153275,-76915.987999
2629.503951,296.082377,5773.606348,-73851.606007
2629.506521,-2368.659014,14211.954086,-67876.061123
2629.509092,-5773.606348,7105.977043,-77988.521696
2629.511662,148.041188,-1332.370696,-78448.178995
2629.514232,740.205942,-3701.029710,-70480.785816
2629.516803,3849.070898,2812.782580,-67416.403824
2629.519377,5477.523971,-17468.860231,-79214.274493
2629.521952,12731.542202,-5625.565159,-75230.577904
2629.524526,7698.141797,-444.123565,-68795.375720
2629.527101,740.205942,3108.864956,-73238.729609
2629.529675,-1036.288319,-6513.812290,-80440.027290
2629.532250,740.205942,2072.576638,-69255.033019
2629.534824,12287.418637,4737.318029,-68335.718422
2629.537399,10658.965565,-11399.171507,-78754.617194
2629.539973,2368.659014,-12435.459826,-77375.645298
2629.542548,-1628.453072,10066.800811,-68182.499322
2629.545122,888.247130,1184.329507,-74924.139704
2629.547697,5329.482782,-9622.677246,-78141.740796
2629.550271,2664.741391,-1332.370696,-70327.566716
2629.552846,8142.265362,2516.700203,-68642.156621
2629.555420,10510.924376,-13471.748144,-78601.398095
2629.557995,7254.018232,-11251.130318,-75996.673402
2629.560569,-1628.453072,2368.659014,-67416.403824
2629.563144,-2072.576638,-2220.617826,-72319.415011
2629.565718,3256.906145,-11695.253884,-78601.398095
2629.568293,6069.688724,8734.430116,-69867.909418
2629.570867,-3849.070898,19541.436869,-70480.785816
2629.573442,-5477.523971,2220.617826,-82431.875585
2629.576016,-5477.523971,148.041188,-76303.111601
2629.578591,-4441.235652,11843.295072,-63279.488135
2629.581165,-3108.864956,1332.370696,-75690.235202
2629.583740,-1480.411884,-4145.153275,-82125.437386
2629.586314,296.082377,10955.047942,-70480.785816
2629.588889,-3256.906145,6661.853478,-69867.909418
2629.591463,-6217.729913,-1776.494261,-77069.207099
2629.594038,-3108.864956,1776.494261,-74924.139704
2629.596612,296.082377,8734.430116,-68335.718422
2629.599187,7105.977043,1184.329507,-74311.263306
2629.601761,-2812.782580,-3552.988522,-77528.864398
2629.604336,-7550.100608,10955.047942,-71706.538613
2629.606910,-6217.729913,8586.388927,-72625.853210
2629.609485,-8142.265362,1628.453072,-76303.111601
2629.612059,-1924.535449,13027.624579,-70174.347617
2629.614634,-1776.494261,12583.501014,-71246.881314
2629.617208,-2812.782580,10510.924376,-76609.549800
2629.619783,6661.853478,-8734.430116,-78907.836294
2629.622325,444.123565,3552.988522,-68182.499322
2629.624867,-1924.535449,-7105.977043,-70634.004916
2629.627409,7846.182985,-12583.501014,-78294.959896
2629.629951,7402.059420,-7105.977043,-72625.853210
2629.632493,3552.988522,5477.523971,-68488.937521
2629.635035,1628.453072,1480.411884,-77528.864398
2629.637577,-296.082377,-4589.276840,-77682.083497
2629.640119,3256.906145,1776.494261,-68642.156621
2629.642661,10955.047942,1332.370696,-69867.909418
2629.645203,592.164754,-10066.800811,-79367.493593
2629.647745,296.082377,-3997.112087,-74158.044206
2629.650287,1776.494261,8438.347739,-69561.471218
2629.652829,-888.247130,-7994.224174,-75843.454302
2629.655371,6365.771101,-3701.029710,-72472.634111
2629.657913,11991.336260,444.123565,-68335.718422
2629.660455,12139.377449,-4441.235652,-74924.139704
2629.662997,9918.759623,-14508.036463,-79980.369991
2629.665539,-296.082377,-3849.070898,-72779.072310
2629.668081,-4293.194464,444.123565,-68642.156621
2629.670623,4885.359217,-9326.594869,-74770.920605
2629.673165,6365.771101,1628.453072,-73698.386908
2629.675707,-1628.453072,15100.201217,-70634.004916
2629.678249,-4293.194464,5921.647536,-79367.493593
2629.680791,-4441.235652,296.082377,-76609.549800
2629.683333,-5921.647536,8882.471304,-65730.993728
2629.685875,-3849.070898,3108.864956,-70480.785816
2629.688417,148.041188,0.000000,-80593.246390
2629.690959,-2960.823768,3256.906145,-77528.864398
2629.693501,-740.205942,8734.430116,-69714.690318
2629.696043,-7254.018232,1332.370696,-73085.510509
2629.698585,-6513.812290,2516.700203,-76303.111601
2629.701128,1776.494261,1924.535449,-72012.976812
2629.703670,2812.782580,1480.411884,-73238.729609
2629.706212,-6513.812290,296.082377,-76456.330700
2629.708754,-7698.141797,3849.070898,-76149.892501
2629.711296,-8882.471304,9770.718434,-72012.976812
2629.713838,-6661.853478,8586.388927,-71400.100414
2629.716380,-2220.617826,6513.812290,-73545.167808
2629.718922,-4441.235652,14656.077652,-71859.757712
2629.721464,-2664.741391,10214.842000,-74617.701505
2629.724015,3404.947333,-2812.782580,-76303.111601
2629.726567,-1480.411884,-6365.771101,-71859.757712
2629.729119,4441.235652,-6513.812290,-71093.662214
2629.731670,9770.718434,-13767.830521,-75690.235202
2629.734222,9770.718434,-8142.265362,-73698.386908
2629.736773,3552.988522,5181.441594,-70634.004916
2629.739325,444.123565,-296.082377,-75843.454302
2629.741877,592.164754,0.000000,-74924.139704
2629.744428,5921.647536,0.000000,-71400.100414
2629.746980,9918.759623,-1184.329507,-70327.566716
2629.749531,5773.606348,-3849.070898,-74617.701505
2629.752083,2812.782580,-4293.194464,-75996.673402
2629.754635,592.164754,1332.370696,-72625.853210
2629.757186,3997.112087,-444.123565,-73698.386908
2629.759738,2812.782580,-6809.894666,-74158.044206
2629.762289,10955.047942,-2368.659014,-69714.690318
2629.764841,9622.677246,-10214.842000,-73851.606007
2629.767393,6365.771101,-6069.688724,-77375.645298
2629.769944,-888.247130,-5477.523971,-76456.330700
2629.772496,-1924.535449,-6957.935855,-72319.415011
2629.775047,6957.935855,-3997.112087,-71093.662214
2629.777599,7550.100608,-1036.288319,-72319.415011
2629.780151,-7846.182985,21317.931130,-73085.510509
2629.782702,-3997.112087,6069.688724,-80440.027290
2629.785254,-7550.100608,3404.947333,-75230.577904
2629.787805,-8142.265362,6069.688724,-67263.184724
2629.790357,-888.247130,2516.700203,-70021.128517
2629.792909,-444.123565,-148.041188,-76762.768900
2629.795460,4145.153275,10066.800811,-74158.044206
2629.798012,-592.164754,3849.070898,-74617.701505
2629.800563,-7994.224174,1628.453072,-73851.606007
2629.803115,-2812.782580,888.247130,-71859.757712
2629.805667,1480.411884,7402.059420,-70174.347617
2629.808218,3701.029710,-1184.329507,-75383.797003
2629.810770,-2072.576638,3404.947333,-75077.358804
2629.813321,-5625.565159,8882.471304,-73238.729609
2629.815873,-8142.265362,4885.359217,-74311.263306
2629.818425,-8882.471304,7994.224174,-72472.634111
2629.820976,-2220.617826,10362.883188,-70480.785816
2629.823528,-4441.235652,14656.077652,-72625.853210
2629.826087,3108.864956,2960.823768,-78141.740796
2629.828646,6513.812290,-1184.329507,-73851.606007
2629.831206,1332.370696,148.041188,-69867.909418
2629.833765,5477.523971,-12139.377449,-75077.358804
2629.836324,4589.276840,-20725.766376,-76915.987999
2629.838884,7254.018232,1184.329507,-70021.128517
2629.841443,1480.411884,740.205942,-74158.044206
2629.844002,-2072.576638,1036.288319,-77222.426198
2629.846562,5181.441594,740.205942,-71859.757712
2629.849121,6661.853478,2220.617826,-68948.594820
2629.851680,4293.194464,-4441.235652,-75383.797003
2629.854239,2812.782580,-6957.935855,-77375.645298
2629.856799,-6365.771101,-7846.182985,-74770.920605
2629.859358,6513.812290,2960.823768,-72166.195912
2629.861917,2220.617826,-1924.535449,-74004.825107
2629.864477,8290.306550,-8438.347739,-72472.634111
2629.867036,13471.748144,1924.535449,-69408.252119
2629.869595,7994.224174,-16136.489536,-80593.246390
2629.872155,-1628.453072,-5329.482782,-77069.207099
2629.874714,-3256.906145,-2220.617826,-71859.757712
2629.877273,1776.494261,-2072.576638,-71093.662214
2629.879833,8290.306550,-9918.759623,-72625.853210
2629.882392,7994.224174,11399.171507,-70480.785816
2629.884951,-6957.935855,17764.942608,-75537.016103
2629.887510,-4441.235652,4885.359217,-80899.684589
2629.890070,-9326.594869,7105.977043,-69408.252119
2629.892629,-4441.235652,3701.029710,-67109.965625
2629.895188,1628.453072,1924.535449,-75383.797003
2629.897748,1628.453072,-444.123565,-77375.645298
2629.900307,148.041188,9622.677246,-72012.976812
2629.902866,-3108.864956,5181.441594,-73391.948708
2629.905426,-6513.812290,1332.370696,-75383.797003
2629.907985,-592.164754,-1776.494261,-72166.195912
2629.910544,-1036.288319,5329.482782,-70174.347617
2629.913104,-7254.018232,0.000000,-76456.330700
2629.915663,-4737.318029,3997.112087,-76456.330700
2629.918222,-6809.894666,11991.336260,-73238.729609
2629.920781,-6661.853478,6069.688724,-73545.167808
2629.923341,-3997.112087,6957.935855,-71859.757712
2629.925900,-7402.059420,11547.212695,-72012.976812
2629.928431,-740.205942,12879.583391,-74617.701505
2629.930961,4293.194464,-3701.029710,-78294.959896
2629.933492,3256.906145,-592.164754,-73545.167808
2629.936023,888.247130,-10066.800811,-70940.443115
2629.938554,8734.430116,-11251.130318,-73238.729609
2629.941084,6957.935855,-9474.636058,-74158.044206
2629.943615,1036.288319,1480.411884,-74158.044206
2629.946146,0.000000,3552.988522,-75843.454302
2629.948676,0.000000,1776.494261,-74158.044206
2629.951207,2368.659014,1036.288319,-70787.224015
2629.953738,10362.883188,-6217.729913,-70940.443115
2629.956269,6513.812290,-740.205942,-73698.386908
2629.958799,592.164754,-4293.194464,-77069.207099
2629.961330,-592.164754,3108.864956,-73698.386908
2629.963861,2368.659014,-6365.771101,-74311.263306
2629.966391,6217.729913,-9770.718434,-72012.976812
2629.968922,12731.542202,-4293.194464,-68488.937521
2629.971453,15396.283594,-3997.112087,-72932.291410
2629.973983,2812.782580,-8290.306550,-81052.903688
2629.976514,-2516.700203,-1480.411884,-76762.768900
2629.979045,-1036.288319,-4293.194464,-70174.347617
2629.981576,6069.688724,-9326.594869,-69867.909418
2629.984106,3108.864956,5477.523971,-71400.100414
2629.986637,-2960.823768,9622.677246,-79214.274493
2629.989168,-6365.771101,13471.748144,-78141.740796
2629.991698,-4885.359217,8142.265362,-70480.785816
2629.994229,-6661.853478,1924.535449,-68948.594820
2629.996760,-1332.370696,-2664.741391,-73085.510509
2629.999291,-888.247130,1332.370696,-75690.235202
2630.001821,592.164754,8586.388927,-75383.797003
2630.004352,-2960.823768,3701.029710,-75690.235202
2630.006883,-5477.523971,-444.123565,-72625.853210
2630.009413,1184.329507,9770.718434,-67876.061123
2630.011944,-1776.494261,-1776.494261,-74617.701505
2630.014475,-4145.153275,2072.576638,-75537.016103
2630.017005,-6069.688724,8882.471304,-74770.920605
2630.019536,-9622.677246,8882.471304,-76149.892501
2630.022067,-7402.059420,6365.771101,-72779.072310
2630.024598,-2812.782580,3701.029710,-70634.004916
2630.027128,-1184.329507,19689.478057,-68488.937521
2630.029671,2960.823768,592.164754,-78448.178995
2630.032213,1628.453072,4589.276840,-75537.016103
2630.034756,888.247130,296.082377,-70174.347617
2630.037298,3849.070898,-16876.695478,-74464.482406
2630.039841,6217.729913,-16876.695478,-74158.044206
2630.042383,11103.089130,-7105.977043,-70021.128517
2630.044926,2960.823768,10658.965565,-70940.443115
2630.047468,3701.029710,-2812.782580,-82125.437386
2630.050011,296.082377,1776.494261,-74158.044206
2630.052553,3256.906145,2664.741391,-66956.746525
2630.055096,7550.100608,-6809.894666,-72166.195912
2630.057638,-888.247130,-10658.965565,-77682.083497
2630.060181,4441.235652,5181.441594,-74464.482406
2630.062723,2664.741391,1628.453072,-75996.673402
2630.065266,1184.329507,-10214.842000,-75230.577904
2630.067808,11695.253884,-9178.553681,-67722.842023
2630.070351,12731.542202,-3552.988522,-68642.156621
2630.072893,7105.977043,-6957.935855,-79520.712692
2630.075436,0.000000,-2220.617826,-78448.178995
2630.077978,-2220.617826,1332.370696,-71400.100414
2630.080521,8734.430116,-10807.006753,-71093.662214
2630.083063,2220.617826,1184.329507,-70327.566716
2630.085606,-3108.864956,16284.530724,-74311.263306
2630.088148,-4441.235652,13619.789333,-78601.398095
2630.090691,-8290.306550,7254.018232,-77528.864398
2630.093234,-3997.112087,7550.100608,-68795.375720
2630.095776,-2516.700203,-888.247130,-69255.033019
2630.098319,2516.700203,1036.288319,-74158.044206
2630.100861,-2664.741391,1924.535449,-76762.768900
2630.103404,-5181.441594,8438.347739,-75690.235202
2630.105946,-2812.782580,5921.647536,-72625.853210
2630.108489,296.082377,-5033.400406,-73238.729609
2630.111041,2960.823768,2368.659014,-69714.690318
2630.113593,-3701.029710,1184.329507,-72472.634111
2630.116144,-3552.988522,10214.842000,-76303.111601
2630.118696,-9770.718434,5625.565159,-79520.712692
2630.121248,-9474.636058,7254.018232,-73545.167808
2630.123800,-5477.523971,10807.006753,-68795.375720
2630.126352,-5625.565159,3849.070898,-73238.729609
2630.128904,-3256.906145,10658.965565,-73851.606007
2630.131456,5921.647536,592.164754,-77222.426198
2630.134008,3404.947333,4293.194464,-74464.482406
2630.136560,-1628.453072,-13175.665768,-74464.482406
2630.139112,9178.553681,-15988.448347,-72166.195912
2630.141664,3997.112087,-13767.830521,-68948.594820
2630.144216,5921.647536,2220.617826,-73085.510509
2630.146768,592.164754,1480.411884,-79214.274493
2630.149320,2072.576638,8438.347739,-74770.920605
2630.151872,5033.400406,296.082377,-69714.690318
2630.154424,6809.894666,-10955.047942,-74004.825107
2630.156976,2812.782580,-5181.441594,-73085.510509
2630.159528,-2220.617826,296.082377,-73698.386908
2630.162080,3404.947333,6661.853478,-77222.426198
2630.164632,3997.112087,-5773.606348,-76609.549800
2630.167184,11547.212695,-9030.512492,-68642.156621
2630.169736,14656.077652,-6217.729913,-66803.527426
2630.172288,9178.553681,-9178.553681,-75383.797003
2630.174840,444.123565,-888.247130,-79673.931792
2630.177392,-2220.617826,-5625.565159,-76609.549800
2630.179944,6809.894666,-3108.864956,-69255.033019
2630.182496,7846.182985,-8290.306550,-68335.718422
2630.185048,-1036.288319,13471.748144,-70480.785816
2630.187600,-4441.235652,9178.553681,-79673.931792
2630.190152,-5773.606348,15840.407159,-78907.836294
2630.192704,-10955.047942,6513.812290,-72932.291410
2630.195256,-3849.070898,888.247130,-69561.471218
2630.197808,-2516.700203,-1628.453072,-72319.415011
2630.200360,2368.659014,3997.112087,-73545.167808
2630.202912,-1480.411884,6365.771101,-76303.111601
2630.205464,-2368.659014,8586.388927,-76456.330700
2630.208015,-7550.100608,-444.123565,-74004.825107
2630.210567,296.082377,-3256.906145,-70174.347617
2630.213127,1332.370696,2812.782580,-69714.690318
2630.215686,-8438.347739,148.041188,-76149.892501
2630.218245,-3849.070898,18061.024985,-75843.454302
2630.220805,-8438.347739,5477.523971,-77222.426198
2630.223364,-4441.235652,4885.359217,-73085.510509
2630.225923,-6661.853478,10214.842000,-68182.499322
2630.228482,1480.411884,4589.276840,-73698.386908
2630.231042,5921.647536,6069.688724,-74617.701505
2630.233601,3849.070898,-2072.576638,-78294.959896
2630.236160,1332.370696,-3849.070898,-74464.482406
2630.238719,10807.006753,-18653.189738,-72932.291410
2630.241279,8438.347739,-10214.842000,-68029.280222
2630.243838,4145.153275,-3552.988522,-72319.415011
2630.246397,1628.453072,2812.782580,-78601.398095
2630.248957,1332.370696,5477.523971,-76609.549800
2630.251516,5625.565159,3997.112087,-69408.252119
2630.254075,10066.800811,-6957.935855,-69867.909418
2630.256634,1480.411884,-11695.253884,-72472.634111
2630.259194,2368.659014,1924.535449,-73698.386908
2630.261753,1036.288319,5773.606348,-77988.521696
2630.264312,1776.494261,-5033.400406,-77375.645298
2630.266872,8586.388927,-6661.853478,-69408.252119
2630.269431,10510.924376,-10658.965565,-66343.870127
2630.271990,8734.430116,-11547.212695,-76149.892501
2630.274549,148.041188,-148.041188,-79214.274493
2630.277109,-1924.535449,6217.729913,-76303.111601
2630.279668,6661.853478,-10214.842000,-73391.948708
2630.282227,2812.782580,-3256.906145,-67876.061123
2630.284786,-2516.700203,10214.842000,-70021.128517
2630.287346,-7846.182985,8438.347739,-78601.398095
2630.289905,-8142.265362,15100.201217,-78754.617194
2630.292464,-5773.606348,9918.759623,-72472.634111
2630.295024,-3108.864956,-2516.700203,-72625.853210
2630.297583,-1184.329507,-3701.029710,-72625.853210
2630.300142,-1480.411884,3849.070898,-72319.415011
2630.302701,-1628.453072,5625.565159,-76456.330700
2630.305261,-4885.359217,6513.812290,-78141.740796
2630.307820,-444.123565,148.041188,-73698.386908
2630.310379,5625.565159,444.123565,-68029.280222
2630.312939,-740.205942,592.164754,-69714.690318
2630.315504,-2368.659014,4737.318029,-75383.797003
2630.318069,-9918.759623,12583.501014,-78141.740796
2630.320634,-8882.471304,9622.677246,-75230.577904
2630.323199,-6069.688724,14359.995275,-69408.252119
2630.325764,-4145.153275,1036.288319,-71859.757712
2630.328329,8438.347739,3256.906145,-71246.881314
2630.330894,5625.565159,3404.947333,-73698.386908
2630.333459,3404.947333,1924.535449,-77528.864398
2630.336024,888.247130,-12287.418637,-77988.521696
2630.338589,7254.018232,-18061.024985,-70940.443115
2630.341154,3849.070898,-10066.800811,-67109.965625
2630.343719,3108.864956,-7402.059420,-77222.426198
2630.346284,3701.029710,11399.171507,-77682.083497
2630.348849,5181.441594,5773.606348,-74617.701505
2630.351414,9030.512492,3256.906145,-70787.224015
2630.353979,6809.894666,-13323.706956,-73238.729609
2630.356544,0.000000,-10362.883188,-71553.319513
2630.359109,-3108.864956,2516.700203,-73851.606007
2630.361674,3849.070898,2368.659014,-79520.712692
2630.364240,7254.018232,-2664.741391,-75537.016103
2630.366805,12731.542202,-11547.212695,-67569.622924
2630.369370,10658.965565,-11399.171507,-69101.813920
2630.371935,0.000000,-4441.235652,-77682.083497
2630.374500,-4737.318029,-3108.864956,-80440.027290
2630.377065,1184.329507,1924.535449,-74464.482406
2630.379630,9178.553681,-6069.688724,-70480.785816
2630.382195,-888.247130,8290.306550,-66343.870127
2630.384760,-1332.370696,4293.194464,-75077.358804
2630.387325,-5181.441594,11399.171507,-77069.207099
2630.389890,-9474.636058,15396.283594,-75077.358804
2630.392455,-2960.823768,7105.977043,-71859.757712
2630.395020,-1924.535449,-4589.276840,-73085.510509
2630.397585,740.205942,592.164754,-70480.785816
2630.400150,3997.112087,888.247130,-73085.510509
2630.402715,296.082377,9030.512492,-76456.330700
2630.405280,-7402.059420,2220.617826,-77682.083497
2630.407845,2220.617826,-592.164754,-72166.195912
2630.410410,-2516.700203,-148.041188,-68948.594820
2630.412976,-7994.224174,-2516.700203,-72779.072310
2630.415541,-4589.276840,13027.624579,-75077.358804
2630.418109,-6957.935855,12435.459826,-78294.959896
2630.420679,-7994.224174,9770.718434,-74924.139704
2630.423248,-5477.523971,15840.407159,-67569.622924
2630.425818,2220.617826,-3997.112087,-72932.291410
2630.428388,3256.906145,148.041188,-72472.634111
2630.430957,3108.864956,2368.659014,-76149.892501
2630.433527,296.082377,-1924.535449,-78754.617194
2630.436096,7402.059420,-18801.230927,-75843.454302
2630.438666,6217.729913,-7698.141797,-66037.431928
2630.441236,3997.112087,-5181.441594,-71706.538613
2630.443805,888.247130,2072.576638,-78448.178995
2630.446375,1036.288319,6809.894666,-77528.864398
2630.448945,6957.935855,8734.430116,-71553.319513
2630.451514,9622.677246,-8142.265362,-72932.291410
2630.454084,2072.576638,-11991.336260,-70940.443115
2630.456653,1924.535449,-1036.288319,-71400.100414
2630.459223,2516.700203,7994.224174,-76609.549800
2630.461793,4293.194464,-9178.553681,-78601.398095
2630.464362,11547.212695,-4885.359217,-68335.718422
2630.466932,11843.295072,-9326.594869,-67722.842023
2630.469502,2960.823768,-11843.295072,-76915.987999
2630.472071,-2220.617826,-2664.741391,-78907.836294
2630.474641,6809.894666,6661.853478,-74004.825107
2630.477210,4885.359217,-3552.988522,-71246.881314
2630.479780,-3552.988522,7254.018232,-70021.128517
2630.482350,-3701.029710,5773.606348,-74311.263306
2630.484919,-8586.388927,7994.224174,-76149.892501
2630.487489,-6809.894666,16136.489536,-73238.729609
2630.490058,-1776.494261,3256.906145,-74770.920605
2630.492628,-3552.988522,740.205942,-72932.291410
2630.495198,-1332.370696,-2516.700203,-71553.319513
2630.497767,1776.494261,1332.370696,-73698.386908
2630.500337,-6809.894666,3701.029710,-77375.645298
2630.502907,-592.164754,7698.141797,-75537.016103
2630.505476,1036.288319,2812.782580,-71706.538613
2630.508046,-2516.700203,-4293.194464,-71400.100414
2630.510615,296.082377,7402.059420,-70327.566716
2630.513185,-10807.006753,9178.553681,-79061.055394
2630.515755,-10807.006753,9622.677246,-77375.645298
2630.518324,-6513.812290,19097.313304,-69101.813920
2630.520898,-5033.400406,8290.306550,-71093.662214
2630.523472,7846.182985,-3108.864956,-72779.072310
2630.526045,5921.647536,-444.123565,-72625.853210
2630.528619,4293.194464,4885.359217,-74770.920605
2630.531193,3552.988522,-12139.377449,-78601.398095
2630.533767,5773.606348,-15988.448347,-74770.920605
2630.536340,3404.947333,-5329.482782,-66190.651027
2630.538914,4441.235652,-5477.523971,-74617.701505
2630.541488,4145.153275,6069.688724,-77835.302597
2630.544062,1924.535449,6513.812290,-74004.825107
2630.546635,3849.070898,5033.400406,-70940.443115
2630.549209,8438.347739,-5625.565159,-73545.167808
2630.551783,1332.370696,-14508.036463,-73391.948708
2630.554356,-444.123565,2516.700203,-70940.443115
2630.556930,2664.741391,888.247130,-78141.740796
2630.559504,5181.441594,-5329.482782,-78448.178995
2630.562078,13471.748144,-7402.059420,-66956.746525
2630.564651,10955.047942,-9770.718434,-68488.937521
2630.567225,-3108.864956,-5329.482782,-78294.959896
2630.569799,-4441.235652,-740.205942,-79520.712692
2630.572373,3404.947333,148.041188,-72166.195912
2630.574946,4589.276840,-740.205942,-70480.785816
2630.577520,-1924.535449,8290.306550,-71706.538613
2630.580094,-2664.741391,2960.823768,-74924.139704
2630.582667,-3997.112087,19393.395680,-71859.757712
2630.585241,-10362.883188,6365.771101,-78141.740796
2630.587815,-3701.029710,1184.329507,-76915.987999
2630.590389,-592.164754,592.164754,-69101.813920
2630.592962,-296.082377,2368.659014,-69867.909418
2630.595536,-1480.411884,592.164754,-76303.111601
2630.598110,-888.247130,-2812.782580,-77835.302597
2630.600684,296.082377,18357.107362,-70174.347617
2630.603257,-740.205942,-3108.864956,-74770.920605
2630.605831,-444.123565,-5477.523971,-72319.415011
2630.608405,-5033.400406,15396.283594,-68948.594820
2630.610978,-11103.089130,5329.482782,-79673.931792
2630.613552,-5773.606348,12879.583391,-76456.330700
2630.616126,-9770.718434,17320.819043,-70021.128517
2630.618700,1036.288319,9178.553681,-68795.375720
2630.621273,6809.894666,-8882.471304,-74924.139704
2630.623850,3108.864956,-1332.370696,-74311.263306
2630.626426,-740.205942,148.041188,-75537.016103
2630.629002,6069.688724,-11251.130318,-78294.959896
2630.631578,7254.018232,-12139.377449,-71093.662214
2630.634154,3997.112087,-8142.265362,-68948.594820
2630.636730,2516.700203,3849.070898,-73851.606007
2630.639307,3404.947333,6069.688724,-78294.959896
2630.641883,3552.988522,5773.606348,-74924.139704
2630.644459,10510.924376,-1036.288319,-71246.881314
2630.647035,2220.617826,-9622.677246,-72319.415011
2630.649611,-1184.329507,-10658.965565,-73238.729609
2630.652187,5181.441594,6809.894666,-73391.948708
2630.654764,6661.853478,-740.205942,-77528.864398
2630.657340,10214.842000,-9030.512492,-73085.510509
2630.659916,12139.377449,-10510.924376,-67416.403824
2630.662492,2516.700203,-6957.935855,-71553.319513
2630.665068,-4737.318029,-6217.729913,-80286.808190
2630.667644,5329.482782,-1628.453072,-77528.864398
2630.670221,6809.894666,0.000000,-69408.252119
2630.672797,740.205942,11695.253884,-68182.499322
2630.675373,-5181.441594,888.247130,-77528.864398
2630.677949,-6513.812290,10510.924376,-74464.482406
2630.680525,-5921.647536,14359.995275,-70787.224015
2630.683101,-3552.988522,7550.100608,-75843.454302
2630.685678,-2072.576638,-3849.070898,-76456.330700
2630.688254,2812.782580,1332.370696,-67569.622924
2630.690830,2516.700203,4145.153275,-70940.443115
2630.693406,-1776.494261,-444.123565,-79214.274493
2630.695982,-3108.864956,2516.700203,-77222.426198
2630.698558,1480.411884,9326.594869,-70634.004916
2630.701135,-6069.688724,-5773.606348,-73238.729609
2630.703711,-3256.906145,1776.494261,-73545.167808
2630.706287,-7994.224174,13471.748144,-74158.044206
2630.708863,-10807.006753,10510.924376,-77682.083497
2630.711439,-10510.924376,15692.365970,-74464.482406
2630.714015,-3404.947333,9474.636058,-70940.443115
2630.716592,6217.729913,-3701.029710,-70327.566716
2630.719168,4145.153275,-296.082377,-73238.729609
2630.721744,148.041188,-4589.276840,-78294.959896
2630.724320,7402.059420,-8290.306550,-76609.549800
2630.726865,5329.482782,-12879.583391,-70480.785816
2630.729411,888.247130,-7550.100608,-70021.128517
2630.731956,3108.864956,-2664.741391,-74311.263306
2630.734501,3108.864956,6661.853478,-75996.673402
2630.737046,592.164754,10066.800811,-73698.386908
2630.739592,7254.018232,-1628.453072,-74004.825107
2630.742137,4737.318029,-8734.430116,-71859.757712
2630.744682,2812.782580,-6957.935855,-70174.347617
2630.747227,-1480.411884,4885.359217,-72472.634111
2630.749773,4293.194464,-1628.453072,-78907.836294
2630.752318,13175.665768,-7254.018232,-74617.701505
2630.754863,10807.006753,-11399.171507,-68335.718422
2630.757408,7846.182985,-7254.018232,-70940.443115
2630.759954,-888.247130,-5033.400406,-77682.083497
2630.762499,3701.029710,-444.123565,-77835.302597
2630.765044,6217.729913,148.041188,-72012.976812
2630.767589,-5625.565159,3997.112087,-71553.319513
2630.770134,-5329.482782,7550.100608,-75230.577904
2630.772680,-7402.059420,7846.182985,-73851.606007
2630.775225,-6513.812290,16284.530724,-70480.785816
2630.777770,-2960.823768,1776.494261,-77375.645298
2630.780315,-3108.864956,2664.741391,-75843.454302
2630.782861,444.123565,2812.782580,-69714.690318
2630.785406,-2516.700203,-4145.153275,-72166.195912
2630.787951,-4145.153275,-2812.782580,-77528.864398
2630.790496,-2368.659014,11695.253884,-74617.701505
2630.793042,-5625.565159,1628.453072,-73698.386908
2630.795587,3108.864956,-1480.411884,-72779.072310
2630.798132,-3108.864956,2960.823768,-71553.319513
2630.800677,-10955.047942,8142.265362,-76149.892501
2630.803223,-10510.924376,15988.448347,-76915.987999
2630.805768,-12139.377449,11695.253884,-74617.701505
2630.808313,-1480.411884,13471.748144,-70021.128517
2630.810858,9622.677246,-6513.812290,-72779.072310
2630.813404,5477.523971,1924.535449,-70480.785816
2630.815949,3701.029710,-4145.153275,-76149.892501
2630.818494,8142.265362,-11843.295072,-77988.521696
2630.821039,2812.782580,-15692.365970,-73085.510509
2630.823585,3849.070898,-6809.894666,-69408.252119
2630.826130,1776.494261,-2072.576638,-74311.263306
2630.828683,2368.659014,6809.894666,-75383.797003
2630.831236,4145.153275,9622.677246,-72932.291410
2630.833789,5477.523971,-1184.329507,-74617.701505
2630.836343,7254.018232,-444.123565,-72166.195912
2630.838896,-1924.535449,-11103.089130,-72625.853210
2630.841449,148.041188,-592.164754,-72625.853210
2630.844002,5033.400406,-1776.494261,-78448.178995
2630.846555,7846.182985,-12583.501014,-75230.577904
2630.849108,14952.160028,-2368.659014,-64352.021832
2630.851661,2220.617826,-6513.812290,-70634.004916
2630.854215,-2220.617826,-7550.100608,-81972.218286
2630.856768,3108.864956,-6069.688724,-76303.111601
2630.859321,888.247130,4589.276840,-68182.499322
2630.861874,-6069.688724,13323.706956,-71706.538613
2630.864427,-5477.523971,-4145.153275,-80440.027290
2630.866980,-2072.576638,15692.365970,-69714.690318
2630.869534,-4589.276840,15840.407159,-70021.128517
2630.872087,-6365.771101,592.164754,-80593.246390
2630.874640,-2516.700203,-148.041188,-75996.673402
2630.877193,-1776.494261,3404.947333,-68029.280222
2630.879746,-2960.823768,-1184.329507,-73085.510509
2630.882299,-444.123565,444.123565,-78294.959896
2630.884852,-2516.700203,3552.988522,-74464.482406
2630.887406,1332.370696,6513.812290,-70021.128517
2630.889959,-444.123565,-3108.864956,-74464.482406
2630.892512,-7698.141797,1776.494261,-73698.386908
2630.895065,-8290.306550,17320.819043,-72319.415011
2630.897618,-10066.800811,16136.489536,-76609.549800
2630.900171,-4589.276840,13471.748144,-74617.701505
2630.902725,7994.224174,-444.123565,-69714.690318
2630.905278,6809.894666,-148.041188,-70480.785816
2630.907831,740.205942,-5033.400406,-77682.083497
2630.910384,4293.194464,-11399.171507,-78141.740796
2630.912937,6069.688724,-13619.789333,-72779.072310
2630.915490,4885.359217,-10510.924376,-70787.224015
2630.918043,2812.782580,-6513.812290,-74311.263306
2630.920597,4145.153275,7550.100608,-73851.606007
2630.923150,296.082377,8734.430116,-72779.072310
2630.925703,2516.700203,2812.782580,-75537.016103
2630.928256,3849.070898,-12139.377449,-75537.016103
2630.930816,-592.164754,-1628.453072,-68335.718422
2630.933376,-1332.370696,740.205942,-72319.415011
2630.935935,4885.359217,-4885.359217,-78754.617194
2630.938495,12731.542202,-5773.606348,-75996.673402
2630.941055,14508.036463,-8142.265362,-68182.499322
2630.943615,888.247130,-4589.276840,-70787.224015
2630.946174,-1480.411884,-4145.153275,-77375.645298
2630.948734,5329.482782,-8586.388927,-76762.768900
2630.951294,4145.153275,2960.823768,-70327.566716
2630.953853,-3404.947333,9326.594869,-71859.757712
2630.956413,-2960.823768,7254.018232,-76456.330700
2630.958973,-3256.906145,7550.100608,-73698.386908
2630.961533,-6217.729913,17172.777854,-68182.499322
2630.964092,-5773.606348,5921.647536,-75383.797003
2630.966652,-2812.782580,-1924.535449,-77069.207099
2630.969212,-1924.535449,7846.182985,-68948.594820
2630.971772,-592.164754,-3552.988522,-72166.195912
2630.974331,-3404.947333,740.205942,-76915.987999
2630.976891,-592.164754,5773.606348,-74158.044206
2630.979451,2368.659014,4441.235652,-72472.634111
2630.982011,-4145.153275,-3849.070898,-74464.482406
2630.984570,-6809.894666,3701.029710,-72472.634111
2630.987130,-12139.377449,13471.748144,-73085.510509
2630.989690,-12139.377449,13619.789333,-76915.987999
2630.992249,-6957.935855,10658.965565,-74311.263306
2630.994809,6513.812290,7994.224174,-70174.347617
2630.997369,6661.853478,-3108.864956,-71553.319513
2630.999929,1628.453072,-1184.329507,-73238.729609
2631.002488,3701.029710,-10214.842000,-77528.864398
2631.005048,4293.194464,-17764.942608,-76915.987999
2631.007608,4589.276840,-7550.100608,-69408.252119
2631.010168,5773.606348,-6809.894666,-71246.881314
2631.012727,740.205942,5773.606348,-74617.701505
2631.015287,5181.441594,3404.947333,-75230.577904
2631.017847,5773.606348,7254.018232,-72472.634111
2631.020407,4589.276840,1184.329507,-74617.701505
2631.022966,1184.329507,-15100.201217,-74617.701505
2631.025526,5181.441594,-5921.647536,-69867.909418
2631.028086,3997.112087,3849.070898,-72166.195912
2631.030646,10362.883188,-8438.347739,-79520.712692
2631.033211,13915.871710,-5329.482782,-70634.004916
2631.035776,5625.565159,-11103.089130,-69867.909418
2631.038342,-148.041188,-8142.265362,-77682.083497
2631.040907,5033.400406,-6365.771101,-78448.178995
2631.043473,6957.935855,3849.070898,-69867.909418
2631.046038,-6365.771101,13323.706956,-69714.690318
2631.048603,-1776.494261,444.123565,-80286.808190
2631.051169,-6513.812290,8142.265362,-73851.606007
2631.053734,-6513.812290,15248.242405,-67569.622924
2631.056300,-3997.112087,11547.212695,-73391.948708
2631.058865,-7698.141797,-4441.235652,-81052.903688
2631.061430,-1628.453072,5625.565159,-68795.375720
2631.063996,-592.164754,148.041188,-69714.690318
2631.066561,-3404.947333,-5181.441594,-77375.645298
2631.069127,148.041188,7994.224174,-74924.139704
2631.071692,-5181.441594,7550.100608,-71553.319513
