#time,accel_x,accel_y,accel_z
2440.230449,888.247130,1184.329507,-72625.853210
2440.233024,-592.164754,296.082377,-73851.606007
2440.235599,-1332.370696,-148.041188,-74617.701505
2440.238174,-740.205942,592.164754,-74158.044206
2440.240749,592.164754,1924.535449,-72625.853210
2440.243324,444.123565,1776.494261,-73391.948708
2440.245899,1184.329507,592.164754,-73698.386908
2440.248474,888.247130,888.247130,-72779.072310
2440.251049,-1036.288319,592.164754,-73698.386908
2440.253624,-1480.411884,148.041188,-74004.825107
2440.256199,-888.247130,1184.329507,-73545.167808
2440.258774,740.205942,1924.535449,-73391.948708
2440.261349,1628.453072,1332.370696,-73698.386908
2440.263924,1480.411884,1480.411884,-73851.606007
2440.266499,1332.370696,1480.411884,-73391.948708
2440.269074,888.247130,740.205942,-73391.948708
2440.271649,-888.247130,0.000000,-74311.263306
2440.274224,-592.164754,296.082377,-73238.729609
2440.276798,1332.370696,1480.411884,-72779.072310
2440.279373,1924.535449,2220.617826,-73238.729609
2440.281948,1480.411884,444.123565,-73085.510509
2440.284338,1184.329507,1036.288319,-73238.729609
2440.286728,0.000000,296.082377,-74158.044206
2440.289118,-888.247130,0.000000,-75077.358804
2440.291507,-3404.947333,-888.247130,-74158.044206
2440.293897,0.000000,-444.123565,-74158.044206
2440.296287,5329.482782,4293.194464,-74004.825107
2440.298676,740.205942,-444.123565,-74158.044206
2440.301066,4145.153275,296.082377,-72319.415011
2440.303456,2516.700203,-3108.864956,-75383.797003
2440.305846,6513.812290,-1184.329507,-74311.263306
2440.308235,10807.006753,-9030.512492,-73391.948708
2440.310625,8142.265362,-10066.800811,-70787.224015
2440.313015,-740.205942,-10658.965565,-73238.729609
2440.315404,-7402.059420,1036.288319,-75383.797003
2440.317794,-3552.988522,3701.029710,-75996.673402
2440.320184,10214.842000,6069.688724,-73698.386908
2440.322574,5033.400406,11251.130318,-71093.662214
2440.324963,-3997.112087,9622.677246,-72932.291410
2440.327353,-10955.047942,8142.265362,-74158.044206
2440.329743,-6513.812290,-888.247130,-74617.701505
2440.332132,888.247130,-1184.329507,-72779.072310
2440.334522,5921.647536,-7254.018232,-75077.358804
2440.336912,2072.576638,-444.123565,-73545.167808
2440.339302,-5773.606348,3701.029710,-73238.729609
2440.341691,-6069.688724,11399.171507,-73391.948708
2440.344081,-4293.194464,7402.059420,-74004.825107
2440.346471,1776.494261,4589.276840,-72932.291410
2440.348860,888.247130,-3404.947333,-73238.729609
2440.351250,1036.288319,-2220.617826,-74004.825107
2440.353640,740.205942,8142.265362,-74311.263306
2440.356030,-7550.100608,-888.247130,-77835.302597
2440.358419,1924.535449,-2664.741391,-72625.853210
2440.360809,3701.029710,3997.112087,-66956.746525
2440.363199,-1480.411884,444.123565,-75690.235202
2440.365588,888.247130,5921.647536,-78448.178995
2440.367978,-7402.059420,5181.441594,-76149.892501
2440.370368,-3849.070898,3404.947333,-73545.167808
2440.372757,-5773.606348,6661.853478,-70940.443115
2440.375147,-5033.400406,-296.082377,-72625.853210
2440.377537,-1332.370696,7994.224174,-70634.004916
2440.379985,-1184.329507,6661.853478,-75843.454302
2440.382434,2664.741391,740.205942,-76149.892501
2440.384882,740.205942,-2368.659014,-71400.100414
2440.387330,-6809.894666,2072.576638,-71093.662214
2440.389779,-9918.759623,1776.494261,-74924.139704
2440.392227,-740.205942,1036.288319,-75690.235202
2440.394675,6069.688724,7550.100608,-71400.100414
2440.397124,148.041188,11695.253884,-72319.415011
2440.399572,740.205942,592.164754,-77222.426198
2440.402020,-1036.288319,-10362.883188,-74464.482406
2440.404469,-3849.070898,8438.347739,-67876.061123
2440.406917,3701.029710,-3997.112087,-76762.768900
2440.409366,12287.418637,-11547.212695,-78907.836294
2440.411814,8882.471304,2664.741391,-68642.156621
2440.414262,-1628.453072,1480.411884,-71400.100414
2440.416711,-3552.988522,-4145.153275,-78754.617194
2440.419159,-148.041188,-2220.617826,-74617.701505
2440.421607,6809.894666,5477.523971,-69255.033019
2440.424056,3552.988522,3701.029710,-74770.920605
2440.426504,0.000000,-6069.688724,-78754.617194
2440.428952,1776.494261,-148.041188,-68795.375720
2440.431401,4885.359217,-3701.029710,-70634.004916
2440.433849,3256.906145,-5921.647536,-76149.892501
2440.436298,3552.988522,-4293.194464,-75996.673402
2440.438746,740.205942,6809.894666,-70940.443115
2440.441194,-4441.235652,-1036.288319,-74617.701505
2440.443643,1480.411884,-1036.288319,-75537.016103
2440.446091,5477.523971,6365.771101,-70174.347617
2440.448539,592.164754,2664.741391,-72779.072310
2440.450988,444.123565,-9622.677246,-78294.959896
2440.453436,2220.617826,3552.988522,-72932.291410
2440.455884,-3701.029710,4293.194464,-71093.662214
2440.458333,2220.617826,-2516.700203,-74158.044206
2440.460781,2664.741391,-2812.782580,-74464.482406
2440.463229,7254.018232,-3849.070898,-70940.443115
2440.465678,9178.553681,3701.029710,-72779.072310
2440.468126,3849.070898,-10362.883188,-77069.207099
2440.470575,2220.617826,-5477.523971,-72472.634111
2440.473023,1036.288319,-1036.288319,-70327.566716
2440.475471,-2220.617826,1036.288319,-73698.386908
2440.477815,-2368.659014,444.123565,-75077.358804
2440.480172,7994.224174,5477.523971,-73238.729609
2440.482530,10066.800811,740.205942,-72625.853210
2440.484887,4293.194464,-1776.494261,-73545.167808
2440.487245,-4737.318029,-2812.782580,-75537.016103
2440.489602,-592.164754,-4885.359217,-75690.235202
2440.491960,5181.441594,-2220.617826,-70480.785816
2440.494317,2072.576638,4885.359217,-72166.195912
2440.496675,3404.947333,148.041188,-76762.768900
2440.499032,-444.123565,2072.576638,-75383.797003
2440.501390,-10362.883188,13915.871710,-70634.004916
2440.503747,-7402.059420,7994.224174,-74004.825107
2440.506104,2220.617826,-1332.370696,-76456.330700
2440.508462,5773.606348,1776.494261,-70940.443115
2440.510819,-1036.288319,3256.906145,-70634.004916
2440.513177,-6809.894666,-1036.288319,-77528.864398
2440.515534,-6217.729913,-296.082377,-75690.235202
2440.517892,-296.082377,5181.441594,-70174.347617
2440.520249,888.247130,6513.812290,-72625.853210
2440.522607,888.247130,3256.906145,-76149.892501
2440.524964,-3701.029710,8438.347739,-74158.044206
2440.527322,-6661.853478,4737.318029,-72625.853210
2440.529679,-2516.700203,2664.741391,-73085.510509
2440.532037,592.164754,-3108.864956,-74924.139704
2440.534394,4441.235652,1924.535449,-72166.195912
2440.536752,-2664.741391,-1184.329507,-74158.044206
2440.539109,-148.041188,1332.370696,-75690.235202
2440.541467,-148.041188,8882.471304,-72166.195912
2440.543824,-1480.411884,-1184.329507,-72779.072310
2440.546182,3552.988522,-2220.617826,-72779.072310
2440.548539,-2664.741391,3256.906145,-74004.825107
2440.550897,-296.082377,4145.153275,-74770.920605
2440.553254,-6365.771101,7402.059420,-74158.044206
2440.555612,-7846.182985,2664.741391,-74770.920605
2440.557969,-2220.617826,7402.059420,-71706.538613
2440.560327,-888.247130,3256.906145,-73545.167808
2440.562684,1628.453072,7105.977043,-74158.044206
2440.565042,2368.659014,-1332.370696,-75537.016103
2440.567399,1924.535449,2516.700203,-73391.948708
2440.569757,-9326.594869,-296.082377,-73545.167808
2440.572185,-8586.388927,2960.823768,-73698.386908
2440.574613,-1628.453072,-888.247130,-74158.044206
2440.577041,6957.935855,4441.235652,-70327.566716
2440.579469,-1332.370696,11843.295072,-73238.729609
2440.581897,-2664.741391,3404.947333,-78601.398095
2440.584325,-3849.070898,-5181.441594,-75383.797003
2440.586753,-3108.864956,3849.070898,-67876.061123
2440.589181,4145.153275,-3552.988522,-72472.634111
2440.591609,13471.748144,-13619.789333,-77528.864398
2440.594037,7254.018232,-2812.782580,-71400.100414
2440.596465,-1776.494261,3997.112087,-70940.443115
2440.598893,-5329.482782,2368.659014,-77222.426198
2440.601321,444.123565,-5329.482782,-76762.768900
2440.603749,9178.553681,2812.782580,-68029.280222
2440.606177,7550.100608,3701.029710,-73238.729609
2440.608605,888.247130,-2812.782580,-78907.836294
2440.611033,296.082377,-1036.288319,-73698.386908
2440.613461,148.041188,-3404.947333,-71706.538613
2440.615889,5033.400406,-8142.265362,-73545.167808
2440.618317,8290.306550,-4589.276840,-74464.482406
2440.620745,4589.276840,1184.329507,-73085.510509
2440.623173,-1628.453072,3108.864956,-74924.139704
2440.625602,1036.288319,2220.617826,-75690.235202
2440.628030,148.041188,-1184.329507,-72625.853210
2440.630458,1480.411884,-2368.659014,-72625.853210
2440.632886,0.000000,-444.123565,-74770.920605
2440.635314,-4145.153275,1036.288319,-75077.358804
2440.637742,1332.370696,4737.318029,-72625.853210
2440.640170,-592.164754,-1924.535449,-74158.044206
2440.642598,4441.235652,-5033.400406,-73238.729609
2440.645026,8142.265362,-5329.482782,-71246.881314
2440.647454,9474.636058,-5033.400406,-72779.072310
2440.649882,1036.288319,-2960.823768,-74464.482406
2440.652310,-2516.700203,-2812.782580,-76303.111601
2440.654738,-3404.947333,3997.112087,-72319.415011
2440.657166,1184.329507,2664.741391,-72779.072310
2440.659594,9326.594869,-2812.782580,-73085.510509
2440.662022,10510.924376,296.082377,-72166.195912
2440.664450,1924.535449,2664.741391,-74004.825107
2440.666878,-3552.988522,1184.329507,-76303.111601
2440.669250,888.247130,-12731.542202,-76609.549800
2440.671622,4589.276840,-2960.823768,-67109.965625
2440.673993,2516.700203,8882.471304,-70021.128517
2440.676365,3997.112087,-5181.441594,-80746.465489
2440.678737,-4589.276840,10807.006753,-74158.044206
2440.681109,-12139.377449,14063.912898,-70174.347617
2440.683480,-2960.823768,7105.977043,-74311.263306
2440.685852,4145.153275,-7550.100608,-77682.083497
2440.688224,7698.141797,3849.070898,-68948.594820
2440.690596,-3256.906145,4441.235652,-72012.976812
2440.692967,-8290.306550,-1924.535449,-80286.808190
2440.695339,-6513.812290,1332.370696,-72779.072310
2440.697711,1036.288319,4145.153275,-67722.842023
2440.700083,1776.494261,5181.441594,-73851.606007
2440.702454,1036.288319,3108.864956,-78141.740796
2440.704826,-5033.400406,12139.377449,-73698.386908
2440.707198,-6809.894666,3404.947333,-73698.386908
2440.709570,-148.041188,-888.247130,-75077.358804
2440.711941,0.000000,-1036.288319,-70787.224015
2440.714313,3256.906145,3997.112087,-71400.100414
2440.716685,-1480.411884,-148.041188,-76456.330700
2440.719057,-3404.947333,148.041188,-76915.987999
2440.721428,2072.576638,4589.276840,-70327.566716
2440.723800,-3108.864956,1628.453072,-71706.538613
2440.726172,0.000000,-1480.411884,-74311.263306
2440.728544,-1924.535449,5625.565159,-73085.510509
2440.730915,-5477.523971,5477.523971,-73851.606007
2440.733287,-5625.565159,10658.965565,-75077.358804
2440.735659,-6513.812290,5477.523971,-74924.139704
2440.738031,1184.329507,5477.523971,-72319.415011
2440.740403,5921.647536,0.000000,-72625.853210
2440.742774,3552.988522,1184.329507,-74158.044206
2440.745146,-5625.565159,1480.411884,-73545.167808
2440.747518,-9770.718434,3256.906145,-75996.673402
2440.749890,-4441.235652,1184.329507,-75077.358804
2440.752261,2960.823768,1332.370696,-71553.319513
2440.754633,1924.535449,5477.523971,-69408.252119
2440.757005,-3404.947333,8438.347739,-75843.454302
2440.759377,-2960.823768,-1184.329507,-78601.398095
2440.761748,-2664.741391,5033.400406,-70174.347617
2440.764187,888.247130,-1332.370696,-70787.224015
2440.766626,11251.130318,-16136.489536,-76915.987999
2440.769065,10066.800811,-6513.812290,-72319.415011
2440.771504,-888.247130,3849.070898,-70480.785816
2440.773942,-7698.141797,3552.988522,-77222.426198
2440.776381,-1628.453072,-3701.029710,-77682.083497
2440.778820,7698.141797,2368.659014,-68642.156621
2440.781259,11103.089130,1036.288319,-69255.033019
2440.783698,3108.864956,-2812.782580,-78601.398095
2440.786137,-4589.276840,444.123565,-76609.549800
2440.788575,-740.205942,-3108.864956,-71859.757712
2440.791014,3404.947333,-4145.153275,-71093.662214
2440.793453,9030.512492,-9030.512492,-73851.606007
2440.795892,11103.089130,-740.205942,-72166.195912
2440.798331,-444.123565,4293.194464,-74617.701505
2440.800770,-2664.741391,2960.823768,-77988.521696
2440.803208,444.123565,-3256.906145,-75537.016103
2440.805647,2072.576638,444.123565,-69867.909418
2440.808086,3849.070898,-296.082377,-72012.976812
2440.810525,444.123565,592.164754,-74924.139704
2440.812964,2220.617826,1184.329507,-74770.920605
2440.815403,3849.070898,-2664.741391,-75383.797003
2440.817841,5033.400406,-4589.276840,-73085.510509
2440.820280,7402.059420,-10066.800811,-72472.634111
2440.822719,3552.988522,-5181.441594,-71246.881314
2440.825158,444.123565,-3108.864956,-75383.797003
2440.827597,-2812.782580,3701.029710,-76456.330700
2440.830036,148.041188,4589.276840,-74004.825107
2440.832474,9474.636058,-2516.700203,-71553.319513
2440.834913,7402.059420,-1628.453072,-73238.729609
2440.837352,-2220.617826,-592.164754,-74617.701505
2440.839791,-3108.864956,3701.029710,-75230.577904
2440.842230,4885.359217,-11103.089130,-76149.892501
2440.844669,6661.853478,-1628.453072,-70021.128517
2440.847107,1480.411884,740.205942,-71553.319513
2440.849546,888.247130,-148.041188,-76456.330700
2440.851985,-9178.553681,13027.624579,-72932.291410
2440.854424,-11547.212695,13471.748144,-72779.072310
2440.856863,296.082377,3552.988522,-75690.235202
2440.859302,7994.224174,-1776.494261,-73545.167808
2440.861790,6809.894666,148.041188,-69561.471218
2440.864279,-3701.029710,444.123565,-74311.263306
2440.866768,-11991.336260,2072.576638,-78907.836294
2440.869256,-9030.512492,2664.741391,-74004.825107
2440.871745,148.041188,5773.606348,-69408.252119
2440.874234,5329.482782,1036.288319,-74464.482406
2440.876722,1776.494261,7846.182985,-74158.044206
2440.879211,-7846.182985,8290.306550,-74770.920605
2440.881700,-10807.006753,4145.153275,-75077.358804
2440.884189,-5477.523971,-1776.494261,-74617.701505
2440.886677,0.000000,-1332.370696,-70787.224015
2440.889166,2368.659014,2072.576638,-70480.785816
2440.891655,-1036.288319,-296.082377,-75077.358804
2440.894143,2368.659014,5181.441594,-74617.701505
2440.896632,3404.947333,4293.194464,-74464.482406
2440.899121,-5329.482782,-888.247130,-74158.044206
2440.901609,-2960.823768,3849.070898,-72166.195912
2440.904098,-6217.729913,5921.647536,-73545.167808
2440.906587,-6957.935855,9326.594869,-73698.386908
2440.909076,-2368.659014,10658.965565,-73391.948708
2440.911564,2812.782580,4885.359217,-74770.920605
2440.914053,5329.482782,-1332.370696,-73238.729609
2440.916542,1628.453072,-592.164754,-71859.757712
2440.919030,-9474.636058,2960.823768,-74158.044206
2440.921519,-8586.388927,2960.823768,-76303.111601
2440.924008,2516.700203,-1480.411884,-74464.482406
2440.926496,7105.977043,3552.988522,-69867.909418
2440.928985,-592.164754,9770.718434,-72166.195912
2440.931474,-2812.782580,4293.194464,-77682.083497
2440.933963,-4145.153275,-2220.617826,-75690.235202
2440.936451,-4145.153275,6957.935855,-69408.252119
2440.938940,3552.988522,-5033.400406,-73085.510509
2440.941429,12879.583391,-16580.613101,-75843.454302
2440.943917,10955.047942,-4589.276840,-70480.785816
2440.946406,-5181.441594,4293.194464,-74464.482406
2440.948895,-9178.553681,-1776.494261,-80133.589091
2440.951383,444.123565,1776.494261,-72625.853210
2440.953872,9474.636058,3256.906145,-67569.622924
2440.956361,8438.347739,740.205942,-73698.386908
2440.958850,3108.864956,-6069.688724,-78907.836294
2440.961288,-1480.411884,2516.700203,-73545.167808
2440.963727,148.041188,-2812.782580,-72472.634111
2440.966166,1924.535449,-6365.771101,-73851.606007
2440.968604,7550.100608,-3701.029710,-71246.881314
2440.971043,5773.606348,4885.359217,-70940.443115
2440.973482,-888.247130,0.000000,-78141.740796
2440.975921,1036.288319,-2664.741391,-76762.768900
2440.978359,-148.041188,5329.482782,-69255.033019
2440.980798,1480.411884,-3849.070898,-73545.167808
2440.983237,1628.453072,-1036.288319,-75077.358804
2440.985676,-1332.370696,-592.164754,-75077.358804
2440.988114,7254.018232,4441.235652,-71706.538613
2440.990553,8438.347739,-6661.853478,-74311.263306
2440.992992,6365.771101,-9918.759623,-73698.386908
2440.995431,2664.741391,-5033.400406,-71093.662214
2440.997869,296.082377,-444.123565,-74617.701505
2441.000308,-4441.235652,592.164754,-76762.768900
2441.002747,5181.441594,2220.617826,-73851.606007
2441.005186,8290.306550,1628.453072,-70634.004916
2441.007624,3552.988522,-2072.576638,-72932.291410
2441.010063,-3404.947333,444.123565,-74158.044206
2441.012502,-296.082377,-1332.370696,-75690.235202
2441.014940,3552.988522,-4145.153275,-72625.853210
2441.017379,1332.370696,-2072.576638,-71859.757712
2441.019818,1036.288319,0.000000,-74158.044206
2441.022257,-444.123565,592.164754,-75230.577904
2441.024695,-11251.130318,15396.283594,-70940.443115
2441.027134,-9622.677246,11251.130318,-73545.167808
2441.029573,2072.576638,3404.947333,-75843.454302
2441.032012,9918.759623,1480.411884,-73085.510509
2441.034450,4441.235652,888.247130,-70480.785816
2441.036889,-7698.141797,-2220.617826,-76915.987999
2441.039328,-8586.388927,888.247130,-76303.111601
2441.041767,-3552.988522,5033.400406,-70787.224015
2441.044205,4293.194464,3404.947333,-70634.004916
2441.046644,4885.359217,2960.823768,-74311.263306
2441.049083,1480.411884,7698.141797,-74004.825107
2441.051521,-4293.194464,7994.224174,-74924.139704
2441.053960,-10214.842000,444.123565,-74924.139704
2441.056399,-1776.494261,-3849.070898,-73545.167808
2441.058887,5033.400406,1480.411884,-71553.319513
2441.061374,-148.041188,148.041188,-74004.825107
2441.063862,592.164754,1628.453072,-74770.920605
2441.066350,-740.205942,4589.276840,-74770.920605
2441.068838,-2072.576638,-1628.453072,-74004.825107
2441.071326,-3701.029710,3849.070898,-73391.948708
2441.073813,-5773.606348,4441.235652,-73851.606007
2441.076301,-5921.647536,11399.171507,-72472.634111
2441.078789,-3552.988522,5625.565159,-74004.825107
2441.081277,3552.988522,5921.647536,-72932.291410
2441.083764,1628.453072,740.205942,-73238.729609
2441.086252,-3997.112087,1480.411884,-73698.386908
2441.088740,-10510.924376,3404.947333,-74770.920605
2441.091228,-3849.070898,1036.288319,-74311.263306
2441.093716,5477.523971,-592.164754,-72319.415011
2441.096203,4589.276840,4293.194464,-70327.566716
2441.098691,-1924.535449,7994.224174,-75077.358804
2441.101179,-2516.700203,4293.194464,-77069.207099
2441.103667,-2072.576638,888.247130,-73698.386908
2441.106154,296.082377,2072.576638,-69714.690318
2441.108642,12139.377449,-12287.418637,-75077.358804
2441.111130,15840.407159,-8142.265362,-73085.510509
2441.113618,1628.453072,-3552.988522,-71400.100414
2441.116105,-6661.853478,740.205942,-75383.797003
2441.118593,-6069.688724,-444.123565,-77682.083497
2441.121081,3404.947333,740.205942,-71706.538613
2441.123569,10807.006753,3552.988522,-67722.842023
2441.126057,7402.059420,0.000000,-74770.920605
2441.128544,-740.205942,-2368.659014,-78601.398095
2441.131032,-2812.782580,-592.164754,-72166.195912
2441.133520,-2072.576638,-5477.523971,-71859.757712
2441.136008,444.123565,-7550.100608,-74464.482406
2441.138495,7550.100608,-1184.329507,-73545.167808
2441.140983,1628.453072,6809.894666,-71400.100414
2441.143471,-444.123565,-1480.411884,-76609.549800
2441.145959,592.164754,444.123565,-74311.263306
2441.148447,888.247130,6365.771101,-70021.128517
2441.150934,7402.059420,-3256.906145,-74924.139704
2441.153422,3256.906145,-148.041188,-77375.645298
2441.155910,2960.823768,-2812.782580,-73238.729609
2441.158434,7254.018232,-3256.906145,-70480.785816
2441.160958,4589.276840,-7846.182985,-74158.044206
2441.163482,1332.370696,-4441.235652,-74617.701505
2441.166006,-1184.329507,-148.041188,-72012.976812
2441.168531,1924.535449,3108.864956,-74158.044206
2441.171055,7698.141797,-2812.782580,-75996.673402
2441.173579,10066.800811,1924.535449,-72625.853210
2441.176103,740.205942,3256.906145,-71553.319513
2441.178627,-3849.070898,-1184.329507,-77222.426198
2441.181151,3701.029710,-8882.471304,-75996.673402
2441.183675,6809.894666,-4293.194464,-69101.813920
2441.186200,2664.741391,1924.535449,-71400.100414
2441.188724,1184.329507,-1480.411884,-78294.959896
2441.191248,-6957.935855,3701.029710,-75843.454302
2441.193772,-11547.212695,14952.160028,-69561.471218
2441.196296,-8290.306550,10362.883188,-73238.729609
2441.198820,4885.359217,-2960.823768,-76149.892501
2441.201345,9474.636058,4441.235652,-69255.033019
2441.203869,-2516.700203,3404.947333,-72932.291410
2441.206393,-12287.418637,-3108.864956,-79980.369991
2441.208917,-11695.253884,-888.247130,-75537.016103
2441.211441,-740.205942,5625.565159,-67722.842023
2441.213965,5773.606348,5921.647536,-69714.690318
2441.216489,4145.153275,2220.617826,-76915.987999
2441.219014,592.164754,7994.224174,-74311.263306
2441.221538,-9030.512492,7550.100608,-73085.510509
2441.224062,-6365.771101,-3404.947333,-74770.920605
2441.226586,1480.411884,-3404.947333,-72625.853210
2441.229110,7254.018232,10955.047942,-69408.252119
2441.231634,-3701.029710,-3404.947333,-77069.207099
2441.234158,3108.864956,-740.205942,-75383.797003
2441.236683,-2368.659014,8438.347739,-70021.128517
2441.239161,-7254.018232,-4885.359217,-75843.454302
2441.241640,-5921.647536,11991.336260,-73698.386908
2441.244119,-6957.935855,5477.523971,-73698.386908
2441.246597,1480.411884,9770.718434,-72779.072310
2441.249076,1332.370696,444.123565,-75383.797003
2441.251555,-148.041188,1036.288319,-74464.482406
2441.254033,-9770.718434,7105.977043,-71400.100414
2441.256512,-9178.553681,1776.494261,-75843.454302
2441.258991,296.082377,-3108.864956,-74617.701505
2441.261469,5625.565159,1036.288319,-70174.347617
2441.263948,2664.741391,9918.759623,-70480.785816
2441.266427,-1036.288319,6217.729913,-78141.740796
2441.268905,-2516.700203,-3404.947333,-77682.083497
2441.271384,-1924.535449,4293.194464,-68795.375720
2441.273863,6513.812290,-2812.782580,-72012.976812
2441.276341,13027.624579,-15248.242405,-76762.768900
2441.278820,6957.935855,-6365.771101,-71400.100414
2441.281299,-1480.411884,2664.741391,-71859.757712
2441.283777,-7402.059420,888.247130,-77682.083497
2441.286256,888.247130,-3997.112087,-74924.139704
2441.288735,10658.965565,3404.947333,-68488.937521
2441.291213,9030.512492,592.164754,-72012.976812
2441.293692,2220.617826,-2368.659014,-79367.493593
2441.296171,-3108.864956,444.123565,-74311.263306
2441.298649,-1924.535449,-2220.617826,-71706.538613
2441.301128,7698.141797,-7698.141797,-73085.510509
2441.303607,8290.306550,-6661.853478,-73391.948708
2441.306085,7846.182985,5181.441594,-71706.538613
2441.308564,-2368.659014,2960.823768,-75537.016103
2441.311043,-2368.659014,-2220.617826,-77988.521696
2441.313521,592.164754,2516.700203,-71246.881314
2441.316000,6809.894666,-592.164754,-70787.224015
2441.318479,7402.059420,-3256.906145,-75537.016103
2441.320957,4293.194464,-2516.700203,-74004.825107
2441.323436,3256.906145,-2072.576638,-71093.662214
2441.325915,148.041188,-7254.018232,-74617.701505
2441.328393,-1628.453072,-2960.823768,-75996.673402
2441.330872,-1628.453072,-1036.288319,-72625.853210
2441.333351,8142.265362,888.247130,-72012.976812
2441.335829,10658.965565,-296.082377,-73391.948708
2441.338346,7105.977043,-740.205942,-74770.920605
2441.340863,-4441.235652,4737.318029,-73238.729609
2441.343379,-2220.617826,-5181.441594,-75383.797003
2441.345896,5181.441594,-9622.677246,-72779.072310
2441.348413,4441.235652,1332.370696,-68948.594820
2441.350929,2516.700203,2368.659014,-74158.044206
2441.353446,-1184.329507,-1776.494261,-78754.617194
2441.355963,-9030.512492,9622.677246,-72472.634111
2441.358479,-11695.253884,13175.665768,-70174.347617
2441.360996,-592.164754,2960.823768,-75690.235202
2441.363513,9770.718434,3701.029710,-72166.195912
2441.366029,3552.988522,2220.617826,-71706.538613
2441.368546,-5921.647536,1924.535449,-76762.768900
2441.371062,-12583.501014,-1184.329507,-77835.302597
2441.373579,-5033.400406,4589.276840,-70634.004916
2441.376096,2220.617826,2220.617826,-70174.347617
2441.378612,6957.935855,3404.947333,-74464.482406
2441.381129,-1776.494261,6661.853478,-75230.577904
2441.383646,-3404.947333,8586.388927,-75383.797003
2441.386162,-7105.977043,2368.659014,-72932.291410
2441.388679,-888.247130,740.205942,-72472.634111
2441.391196,1332.370696,888.247130,-71553.319513
2441.393712,592.164754,1332.370696,-74158.044206
2441.396229,-2664.741391,1628.453072,-74617.701505
2441.398746,-1628.453072,5477.523971,-72779.072310
2441.401262,-5625.565159,5625.565159,-72166.195912
2441.403779,-1924.535449,1924.535449,-75383.797003
2441.406296,-1332.370696,8882.471304,-74464.482406
2441.408812,3997.112087,5625.565159,-72932.291410
2441.411329,888.247130,6217.729913,-72779.072310
2441.413846,-4293.194464,-148.041188,-75230.577904
2441.416362,-7994.224174,6513.812290,-73391.948708
2441.418879,-5033.400406,592.164754,-73391.948708
2441.421396,6069.688724,-592.164754,-72472.634111
2441.423912,5033.400406,2516.700203,-71859.757712
2441.426429,-2516.700203,5625.565159,-74311.263306
2441.428945,-4589.276840,6069.688724,-76762.768900
2441.431462,-4145.153275,-1332.370696,-75690.235202
2441.433979,-1924.535449,6661.853478,-69714.690318
2441.436495,12435.459826,-10066.800811,-74924.139704
2441.438974,14359.995275,-9622.677246,-74617.701505
2441.441455,2516.700203,-1628.453072,-71706.538613
2441.443935,-5329.482782,-740.205942,-75383.797003
2441.446415,-7105.977043,-2664.741391,-76456.330700
2441.448895,3108.864956,-740.205942,-70940.443115
2441.451375,11991.336260,4441.235652,-67722.842023
2441.453855,9622.677246,-2516.700203,-74924.139704
2441.456335,3404.947333,0.000000,-77069.207099
2441.458815,-5477.523971,1184.329507,-73851.606007
2441.461295,-1628.453072,-4145.153275,-72932.291410
2441.463775,4589.276840,-9474.636058,-72625.853210
2441.466255,9474.636058,-2960.823768,-72625.853210
2441.468735,6365.771101,2516.700203,-74158.044206
2441.471215,2220.617826,2960.823768,-76303.111601
2441.473695,592.164754,888.247130,-74770.920605
2441.476175,4885.359217,740.205942,-71246.881314
2441.478655,3849.070898,-5921.647536,-74617.701505
2441.481135,6809.894666,-5033.400406,-73851.606007
2441.483615,7550.100608,-296.082377,-72012.976812
2441.486096,1184.329507,-3701.029710,-74464.482406
2441.488576,-1480.411884,-4589.276840,-75383.797003
2441.491056,-148.041188,-888.247130,-73085.510509
2441.493536,7550.100608,-296.082377,-71859.757712
2441.496016,10066.800811,-2812.782580,-73851.606007
2441.498496,2220.617826,740.205942,-74464.482406
2441.500976,-4589.276840,4441.235652,-74158.044206
2441.503456,-3108.864956,-592.164754,-75230.577904
2441.505936,6957.935855,-8882.471304,-71706.538613
2441.508416,3404.947333,148.041188,-70174.347617
2441.510896,1184.329507,888.247130,-76303.111601
2441.513376,-3997.112087,-888.247130,-78294.959896
2441.515856,-10510.924376,11695.253884,-71246.881314
2441.518336,-9622.677246,12583.501014,-71246.881314
2441.520816,1332.370696,1036.288319,-75996.673402
2441.523296,8290.306550,1184.329507,-72166.195912
2441.525776,5329.482782,5181.441594,-69408.252119
2441.528256,-9918.759623,0.000000,-78754.617194
2441.530736,-13323.706956,740.205942,-76456.330700
2441.533217,-4441.235652,3701.029710,-69714.690318
2441.535697,3552.988522,3552.988522,-69867.909418
2441.538153,7254.018232,2812.782580,-75230.577904
2441.540610,3256.906145,5773.606348,-75230.577904
2441.543067,-2072.576638,11695.253884,-72932.291410
2441.545524,-6513.812290,-2072.576638,-75383.797003
2441.547981,-888.247130,-1480.411884,-73238.729609
2441.550437,1332.370696,3849.070898,-69561.471218
2441.552894,296.082377,-444.123565,-75230.577904
2441.555351,-4737.318029,148.041188,-76303.111601
2441.557808,-5033.400406,7550.100608,-71400.100414
2441.560264,-5625.565159,7254.018232,-72932.291410
2441.562721,-3552.988522,2960.823768,-75843.454302
2441.565178,444.123565,4441.235652,-74004.825107
2441.567635,592.164754,8142.265362,-70327.566716
2441.570092,-3404.947333,1628.453072,-74158.044206
2441.572548,-9326.594869,4737.318029,-76149.892501
2441.575005,-4441.235652,740.205942,-73698.386908
2441.577462,5773.606348,1776.494261,-69714.690318
2441.579919,3256.906145,-1776.494261,-72472.634111
2441.582376,-3997.112087,3849.070898,-75383.797003
2441.584832,-5181.441594,5921.647536,-75537.016103
2441.587289,-1776.494261,3849.070898,-73698.386908
2441.589746,-1480.411884,4145.153275,-71400.100414
2441.592203,9178.553681,-6809.894666,-73238.729609
2441.594660,14211.954086,-10362.883188,-73698.386908
2441.597116,148.041188,-4293.194464,-73238.729609
2441.599573,-6661.853478,888.247130,-75996.673402
2441.602030,-5773.606348,-2072.576638,-76609.549800
2441.604487,4293.194464,-444.123565,-70327.566716
2441.606943,13767.830521,2516.700203,-69101.813920
2441.609400,11399.171507,-2220.617826,-75077.358804
2441.611857,2516.700203,888.247130,-76149.892501
2441.614314,-3701.029710,1480.411884,-75537.016103
2441.616771,-2664.741391,-2812.782580,-73545.167808
2441.619227,2072.576638,-6809.894666,-71400.100414
2441.621684,10658.965565,-444.123565,-72012.976812
2441.624141,6217.729913,2516.700203,-74158.044206
2441.626598,-4441.235652,-444.123565,-76149.892501
2441.629055,3404.947333,888.247130,-74617.701505
2441.631511,2368.659014,3404.947333,-70940.443115
2441.633968,3701.029710,-9622.677246,-75077.358804
2441.636470,8734.430116,-3701.029710,-72932.291410
2441.638972,4885.359217,-5181.441594,-74004.825107
2441.641474,3108.864956,1184.329507,-73698.386908
2441.643976,-2812.782580,-5329.482782,-74158.044206
2441.646478,5773.606348,-6809.894666,-73238.729609
2441.648980,8438.347739,-592.164754,-70480.785816
2441.651482,2960.823768,1036.288319,-73851.606007
2441.653984,-2516.700203,5181.441594,-75230.577904
2441.656486,2368.659014,-1628.453072,-76609.549800
2441.658988,7550.100608,-3108.864956,-71706.538613
2441.661490,3849.070898,-3256.906145,-69714.690318
2441.663992,-1480.411884,444.123565,-74311.263306
2441.666494,-3404.947333,-5477.523971,-78907.836294
2441.668996,-9918.759623,12435.459826,-72166.195912
2441.671498,-7994.224174,11991.336260,-72319.415011
2441.674000,5773.606348,3849.070898,-75383.797003
2441.676502,8142.265362,740.205942,-71400.100414
2441.679004,1184.329507,2516.700203,-71400.100414
2441.681506,-7846.182985,2516.700203,-76609.549800
2441.684008,-14952.160028,1480.411884,-78601.398095
2441.686510,-7105.977043,1036.288319,-71859.757712
2441.689012,3256.906145,2960.823768,-68948.594820
2441.691514,6513.812290,2072.576638,-75077.358804
2441.694016,2516.700203,8142.265362,-74924.139704
2441.696518,-10807.006753,6513.812290,-75077.358804
2441.699020,-7402.059420,-1924.535449,-76609.549800
2441.701522,-740.205942,1924.535449,-72625.853210
2441.704024,-148.041188,-3701.029710,-71400.100414
2441.706526,1924.535449,3552.988522,-71400.100414
2441.709028,-3997.112087,3404.947333,-75843.454302
2441.711530,-3997.112087,9474.636058,-74004.825107
2441.714032,-6809.894666,5329.482782,-73085.510509
2441.716534,-740.205942,-740.205942,-75537.016103
2441.719036,2664.741391,6661.853478,-71400.100414
2441.721538,-1628.453072,1628.453072,-72932.291410
2441.724040,-5773.606348,10955.047942,-73545.167808
2441.726542,-7698.141797,2220.617826,-77988.521696
2441.729044,3256.906145,-888.247130,-73698.386908
2441.731546,5033.400406,-2072.576638,-69714.690318
2441.734048,-1480.411884,4145.153275,-71706.538613
2441.736583,-6957.935855,2960.823768,-77988.521696
2441.739118,-1776.494261,1628.453072,-75230.577904
2441.741654,592.164754,9770.718434,-69101.813920
2441.744189,8734.430116,-2960.823768,-74004.825107
2441.746724,14211.954086,-14508.036463,-75690.235202
2441.749259,8142.265362,-7105.977043,-70940.443115
2441.751795,-5329.482782,2220.617826,-72166.195912
2441.754330,-9918.759623,-2960.823768,-79214.274493
2441.756865,148.041188,-1036.288319,-75230.577904
2441.759400,10066.800811,2368.659014,-67722.842023
2441.761936,11547.212695,-2072.576638,-73391.948708
2441.764471,3701.029710,-888.247130,-77375.645298
2441.767006,-6513.812290,-1628.453072,-75690.235202
2441.769541,-8142.265362,296.082377,-72319.415011
2441.772077,-2072.576638,-8290.306550,-74770.920605
2441.774612,6513.812290,-4441.235652,-72166.195912
2441.777147,8438.347739,2220.617826,-70634.004916
2441.779683,-2220.617826,3404.947333,-75077.358804
2441.782218,1776.494261,-3256.906145,-78141.740796
2441.784753,6809.894666,4145.153275,-71706.538613
2441.787288,4737.318029,-7254.018232,-73698.386908
2441.789824,5625.565159,-4885.359217,-73391.948708
2441.792359,1332.370696,-6069.688724,-73085.510509
2441.794894,1480.411884,1776.494261,-71859.757712
2441.797429,888.247130,-1332.370696,-75843.454302
2441.799965,8290.306550,-6365.771101,-75537.016103
2441.802500,7846.182985,-1924.535449,-69867.909418
2441.805035,1184.329507,1776.494261,-71553.319513
2441.807570,-5477.523971,4441.235652,-77835.302597
2441.810106,2072.576638,-3701.029710,-75843.454302
2441.812641,8142.265362,0.000000,-69255.033019
2441.815176,4293.194464,1480.411884,-70787.224015
2441.817711,-740.205942,-5181.441594,-77682.083497
2441.820247,-4589.276840,-1184.329507,-74770.920605
2441.822782,-10955.047942,15840.407159,-70480.785816
2441.825317,-9474.636058,9030.512492,-76149.892501
2441.827852,2812.782580,296.082377,-75843.454302
2441.830388,8734.430116,6957.935855,-68488.937521
2441.832923,1924.535449,3108.864956,-72779.072310
2441.835458,-9178.553681,-3997.112087,-80746.465489
2441.838019,-12139.377449,2072.576638,-75537.016103
2441.840581,-3404.947333,6661.853478,-69867.909418
2441.843142,3404.947333,2516.700203,-72472.634111
2441.845703,7846.182985,-148.041188,-75690.235202
2441.848264,1184.329507,8882.471304,-70634.004916
2441.850826,-4293.194464,7254.018232,-74004.825107
2441.853387,-5477.523971,-1036.288319,-77528.864398
2441.855948,3552.988522,592.164754,-73085.510509
2441.858510,3997.112087,5033.400406,-72012.976812
2441.861071,-6365.771101,-4145.153275,-76303.111601
2441.863632,-6809.894666,7402.059420,-72779.072310
2441.866193,-5477.523971,8290.306550,-72625.853210
2441.868755,1184.329507,9474.636058,-74004.825107
2441.871316,2220.617826,888.247130,-76149.892501
2441.873877,1184.329507,2516.700203,-70940.443115
2441.876438,-6365.771101,9474.636058,-71859.757712
2441.879000,-9474.636058,3404.947333,-77528.864398
2441.881561,1036.288319,-2072.576638,-75690.235202
2441.884122,4885.359217,1480.411884,-68795.375720
2441.886683,-1628.453072,5329.482782,-72319.415011
2441.889245,-2812.782580,148.041188,-77835.302597
2441.891806,-1184.329507,-148.041188,-75690.235202
2441.894367,-1480.411884,8142.265362,-69561.471218
2441.896928,3404.947333,1184.329507,-74464.482406
2441.899490,10362.883188,-13619.789333,-78141.740796
2441.902051,8882.471304,-5921.647536,-68948.594820
2441.904612,-2812.782580,0.000000,-71706.538613
2441.907173,-6365.771101,-5181.441594,-79980.369991
2441.909735,2072.576638,-1332.370696,-73851.606007
2441.912296,10510.924376,5033.400406,-68335.718422
2441.914857,9326.594869,-1628.453072,-74004.825107
2441.917418,888.247130,-2368.659014,-76303.111601
2441.919980,-1036.288319,-296.082377,-73238.729609
2441.922541,-296.082377,1628.453072,-71706.538613
2441.925102,6661.853478,-7994.224174,-75230.577904
2441.927663,8734.430116,-1184.329507,-72166.195912
2441.930225,2072.576638,4293.194464,-70940.443115
2441.932786,-740.205942,-1036.288319,-76609.549800
2441.935347,1480.411884,-1480.411884,-75843.454302
2441.937908,7254.018232,2072.576638,-69867.909418
2441.940488,9770.718434,-5477.523971,-73238.729609
2441.943068,10214.842000,-7550.100608,-75996.673402
2441.945647,1184.329507,-5477.523971,-72932.291410
2441.948227,296.082377,148.041188,-72319.415011
2441.950807,0.000000,-3849.070898,-76303.111601
2441.953386,7550.100608,-6069.688724,-73545.167808
2441.955966,4885.359217,6365.771101,-68948.594820
2441.958546,-296.082377,2368.659014,-75537.016103
2441.961125,3701.029710,0.000000,-77835.302597
2441.963705,6365.771101,-6513.812290,-72779.072310
2441.966284,1480.411884,5033.400406,-68335.718422
2441.968864,-5329.482782,-5181.441594,-77528.864398
2441.971444,-5181.441594,-4737.318029,-77528.864398
2441.974023,-7105.977043,10362.883188,-68642.156621
2441.976603,-6069.688724,12583.501014,-70940.443115
2441.979183,5181.441594,1184.329507,-78907.836294
2441.981762,5477.523971,6957.935855,-71706.538613
2441.984342,-1036.288319,5329.482782,-69867.909418
2441.986922,-9770.718434,0.000000,-77069.207099
2441.989501,-14359.995275,-3256.906145,-77835.302597
2441.992081,-3108.864956,3997.112087,-69561.471218
2441.994661,6217.729913,7550.100608,-70327.566716
2441.997240,9030.512492,-148.041188,-76303.111601
2441.999820,2664.741391,5773.606348,-74311.263306
2442.002400,-8142.265362,5181.441594,-72932.291410
2442.004979,-4885.359217,-2368.659014,-75077.358804
2442.007559,-1184.329507,2960.823768,-72319.415011
2442.010139,3404.947333,3404.947333,-72012.976812
2442.012718,-888.247130,592.164754,-75230.577904
2442.015298,-6513.812290,888.247130,-75690.235202
2442.017878,-4737.318029,10955.047942,-70327.566716
2442.020457,-6957.935855,6957.935855,-72166.195912
2442.023037,-1184.329507,1628.453072,-77528.864398
2442.025617,-2812.782580,8142.265362,-71553.319513
2442.028196,-3997.112087,8290.306550,-72166.195912
2442.030776,0.000000,1332.370696,-75843.454302
2442.033355,2960.823768,-4293.194464,-75077.358804
2442.035935,740.205942,1776.494261,-69408.252119
2442.038515,-7846.182985,4885.359217,-73545.167808
2442.041094,-4885.359217,-148.041188,-78601.398095
2442.043688,-148.041188,148.041188,-73085.510509
2442.046281,3404.947333,10807.006753,-67722.842023
2442.048874,10955.047942,-3404.947333,-77222.426198
2442.051467,10362.883188,-8882.471304,-75537.016103
2442.054060,-888.247130,-3256.906145,-70174.347617
2442.056653,-5625.565159,-3849.070898,-75690.235202
2442.059246,-888.247130,-4441.235652,-77835.302597
2442.061840,9918.759623,1332.370696,-70021.128517
2442.064433,14211.954086,3997.112087,-70021.128517
2442.067026,6957.935855,-3256.906145,-77682.083497
2442.069619,-1628.453072,-444.123565,-77222.426198
2442.072212,-1184.329507,-740.205942,-71859.757712
2442.074805,592.164754,-3849.070898,-72932.291410
2442.077399,9770.718434,-6365.771101,-73545.167808
2442.079992,5921.647536,6069.688724,-70940.443115
2442.082585,-740.205942,-2368.659014,-76149.892501
2442.085178,-1480.411884,-148.041188,-76303.111601
2442.087771,-444.123565,-1332.370696,-73851.606007
2442.090364,7846.182985,-592.164754,-69867.909418
2442.092957,5625.565159,-7994.224174,-73851.606007
2442.095551,3404.947333,-8734.430116,-76762.768900
2442.098144,1628.453072,1332.370696,-71246.881314
2442.100737,5181.441594,-5033.400406,-74311.263306
2442.103330,2960.823768,-2220.617826,-74004.825107
2442.105923,-592.164754,592.164754,-73238.729609
2442.108516,-1036.288319,5921.647536,-72779.072310
2442.111110,6069.688724,-2960.823768,-75537.016103
2442.113703,8142.265362,-1332.370696,-72166.195912
2442.116296,-1036.288319,296.082377,-71246.881314
2442.118889,-888.247130,-148.041188,-74464.482406
2442.121482,-5477.523971,-4589.276840,-76762.768900
2442.124075,-9178.553681,10807.006753,-70480.785816
2442.126668,-2664.741391,11991.336260,-72625.853210
2442.129262,6365.771101,-296.082377,-77835.302597
2442.131855,6957.935855,9030.512492,-70787.224015
2442.134448,-1924.535449,2664.741391,-71859.757712
2442.137041,-8438.347739,2220.617826,-75996.673402
2442.139634,-11547.212695,-3256.906145,-77069.207099
2442.142227,-1184.329507,5033.400406,-70480.785816
2442.144820,2960.823768,3404.947333,-71706.538613
2442.147424,3256.906145,2664.741391,-75077.358804
2442.150027,-1480.411884,6069.688724,-74464.482406
2442.152630,-5181.441594,4441.235652,-73545.167808
2442.155234,-3997.112087,-2664.741391,-74004.825107
2442.157837,4885.359217,3404.947333,-72779.072310
2442.160440,-2960.823768,3404.947333,-73085.510509
2442.163043,-4737.318029,-1776.494261,-75996.673402
2442.165647,-8586.388927,11399.171507,-72012.976812
2442.168250,-9326.594869,3997.112087,-73545.167808
2442.170853,-1184.329507,4145.153275,-74464.482406
2442.173456,-3108.864956,7698.141797,-73391.948708
2442.176060,-3552.988522,6661.853478,-73851.606007
2442.178663,-1332.370696,3256.906145,-74464.482406
2442.181266,1628.453072,-5329.482782,-74770.920605
2442.183869,-1184.329507,1776.494261,-69714.690318
2442.186473,-8882.471304,2812.782580,-74311.263306
2442.189076,-2960.823768,2960.823768,-77069.207099
2442.191679,3108.864956,-1184.329507,-73391.948708
2442.194282,7698.141797,9030.512492,-69101.813920
2442.196886,9178.553681,-5033.400406,-76609.549800
2442.199489,8586.388927,-10362.883188,-75077.358804
2442.202092,-148.041188,-2368.659014,-70327.566716
2442.204695,-6809.894666,-3108.864956,-74158.044206
2442.207299,-3256.906145,-5477.523971,-77069.207099
2442.209902,7550.100608,888.247130,-70940.443115
2442.212505,14804.118840,3552.988522,-69561.471218
2442.215109,9918.759623,-1924.535449,-76609.549800
2442.217712,-1036.288319,-1332.370696,-76915.987999
2442.220315,-6661.853478,1480.411884,-72166.195912
2442.222918,-2516.700203,-5625.565159,-73391.948708
2442.225522,7254.018232,-9622.677246,-74004.825107
2442.228125,7254.018232,7402.059420,-69867.909418
2442.230728,-1776.494261,592.164754,-74311.263306
2442.233331,1036.288319,-1184.329507,-76762.768900
2442.235935,2516.700203,-2220.617826,-73238.729609
2442.238538,6069.688724,740.205942,-70327.566716
2442.241141,6365.771101,-9178.553681,-75537.016103
2442.243744,5921.647536,-6069.688724,-74770.920605
2442.246348,3404.947333,-148.041188,-70634.004916
2442.248951,2812.782580,-7105.977043,-76303.111601
2442.251560,2072.576638,-1924.535449,-74924.139704
2442.254169,-2368.659014,4145.153275,-72166.195912
2442.256779,-148.041188,5033.400406,-72932.291410
2442.259388,7994.224174,-5181.441594,-75537.016103
2442.261997,7994.224174,-1924.535449,-71400.100414
2442.264606,-444.123565,3552.988522,-70787.224015
2442.267216,-3108.864956,-2220.617826,-77375.645298
2442.269825,-9622.677246,2664.741391,-74004.825107
2442.272434,-9474.636058,11843.295072,-68335.718422
2442.275043,740.205942,9030.512492,-73698.386908
2442.277652,7105.977043,0.000000,-77528.864398
2442.280262,5625.565159,8734.430116,-70174.347617
2442.282871,-3108.864956,4145.153275,-72012.976812
2442.285480,-9622.677246,-1628.453072,-78448.178995
2442.288089,-10955.047942,-888.247130,-74311.263306
2442.290699,444.123565,4441.235652,-69255.033019
2442.293308,4737.318029,4293.194464,-72472.634111
2442.295917,4589.276840,4145.153275,-76915.987999
2442.298526,444.123565,7105.977043,-72932.291410
2442.301135,-7105.977043,3256.906145,-73238.729609
2442.303745,-2220.617826,-10066.800811,-76762.768900
2442.306354,3997.112087,9030.512492,-71706.538613
2442.308963,-4441.235652,1332.370696,-73545.167808
2442.311572,-3849.070898,7402.059420,-72779.072310
2442.314182,-13175.665768,2664.741391,-75690.235202
2442.316791,-4145.153275,6957.935855,-73085.510509
2442.319400,-2812.782580,13175.665768,-72166.195912
2442.322009,-2664.741391,4145.153275,-77069.207099
2442.324618,0.000000,7550.100608,-72012.976812
2442.327228,2516.700203,-7994.224174,-73698.386908
2442.329837,1332.370696,1776.494261,-71553.319513
2442.332446,-12435.459826,1924.535449,-74924.139704
2442.335055,-5477.523971,4441.235652,-75996.673402
2442.337665,1332.370696,-1776.494261,-74004.825107
2442.340274,7698.141797,8882.471304,-69867.909418
2442.342883,10362.883188,-2220.617826,-74464.482406
2442.345492,9326.594869,-9030.512492,-74770.920605
2442.348101,444.123565,-4293.194464,-71859.757712
2442.350711,-7550.100608,-4293.194464,-74311.263306
2442.353320,-5625.565159,-4737.318029,-76303.111601
2442.355933,5625.565159,-1480.411884,-71553.319513
2442.358546,16136.489536,4441.235652,-69561.471218
2442.361160,13027.624579,-1480.411884,-75077.358804
2442.363773,1332.370696,-1036.288319,-77375.645298
2442.366386,-2812.782580,0.000000,-74770.920605
2442.369000,-3997.112087,-3997.112087,-72932.291410
2442.371613,5477.523971,-5033.400406,-72625.853210
2442.374226,12139.377449,3701.029710,-71400.100414
2442.376839,4145.153275,2960.823768,-74617.701505
2442.379453,740.205942,-3404.947333,-77682.083497
2442.382066,2960.823768,-444.123565,-72319.415011
2442.384679,4293.194464,-2368.659014,-70787.224015
2442.387293,6513.812290,-7254.018232,-75383.797003
2442.389906,3701.029710,-8438.347739,-74924.139704
2442.392519,4293.194464,-3256.906145,-72472.634111
2442.395132,3404.947333,-2220.617826,-74158.044206
2442.397746,-1480.411884,148.041188,-75383.797003
2442.400359,-2516.700203,2368.659014,-73851.606007
2442.402972,4293.194464,2368.659014,-72472.634111
2442.405586,9474.636058,-3552.988522,-73085.510509
2442.408199,4589.276840,-592.164754,-72472.634111
2442.410812,-3552.988522,1184.329507,-74004.825107
2442.413425,-4293.194464,-3701.029710,-77222.426198
2442.416039,-9178.553681,6365.771101,-72472.634111
2442.418652,-8586.388927,9178.553681,-70327.566716
2442.421265,5921.647536,5033.400406,-74924.139704
2442.423878,5625.565159,5329.482782,-74158.044206
2442.426492,1776.494261,6217.729913,-72166.195912
2442.429105,-7254.018232,2812.782580,-74311.263306
2442.431718,-12287.418637,-2960.823768,-77375.645298
2442.434332,-5477.523971,3404.947333,-71093.662214
2442.436945,2960.823768,1480.411884,-71246.881314
2442.439558,1480.411884,4145.153275,-74311.263306
2442.442171,-2368.659014,7105.977043,-74617.701505
2442.444785,-4145.153275,2516.700203,-74311.263306
2442.447398,-1776.494261,1480.411884,-72625.853210
2442.450011,1924.535449,-1332.370696,-73085.510509
2442.452625,2516.700203,4885.359217,-73085.510509
2442.455238,-5477.523971,740.205942,-75383.797003
2442.457851,-7254.018232,11251.130318,-72319.415011
2442.460464,-10510.924376,4737.318029,-74311.263306
2442.463079,-5477.523971,7402.059420,-73698.386908
2442.465693,-2516.700203,9178.553681,-73238.729609
2442.468308,4293.194464,6365.771101,-74158.044206
2442.470922,4293.194464,-1480.411884,-73851.606007
2442.473537,-296.082377,-6957.935855,-73851.606007
2442.476151,-10807.006753,5329.482782,-72166.195912
2442.478766,-10510.924376,3256.906145,-76303.111601
2442.481380,3997.112087,3552.988522,-72779.072310
2442.483995,6957.935855,6365.771101,-69714.690318
2442.486609,14211.954086,-2516.700203,-75230.577904
2442.489224,10362.883188,-8290.306550,-76456.330700
2442.491838,-2368.659014,-5773.606348,-70940.443115
2442.494453,-5033.400406,-1036.288319,-73238.729609
2442.497067,-2072.576638,-7994.224174,-77528.864398
2442.499681,9030.512492,592.164754,-71400.100414
2442.502296,14804.118840,2516.700203,-69255.033019
2442.504910,11843.295072,1924.535449,-75537.016103
2442.507525,-5033.400406,-2516.700203,-78294.959896
2442.510139,-4737.318029,-2072.576638,-73085.510509
2442.512754,1036.288319,444.123565,-70327.566716
2442.515368,592.164754,-7402.059420,-74158.044206
2442.517983,6809.894666,2368.659014,-74004.825107
2442.520597,-2960.823768,2072.576638,-73391.948708
2442.523212,-1628.453072,-3849.070898,-74924.139704
2442.525826,4885.359217,444.123565,-72319.415011
2442.528441,5477.523971,-8290.306550,-73545.167808
2442.531055,9178.553681,-5329.482782,-73238.729609
2442.533670,5773.606348,-7994.224174,-74617.701505
2442.536284,4441.235652,-5329.482782,-73238.729609
2442.538899,0.000000,-2072.576638,-72932.291410
2442.541513,-5477.523971,4293.194464,-76609.549800
2442.544128,1628.453072,5921.647536,-73698.386908
2442.546742,12287.418637,-4737.318029,-72319.415011
2442.549356,10362.883188,1184.329507,-70480.785816
2442.551971,-3404.947333,-1184.329507,-75230.577904
2442.554585,-5921.647536,-5181.441594,-78448.178995
2442.557200,-10362.883188,4885.359217,-71553.319513
2442.559814,-8142.265362,10214.842000,-70327.566716
2442.562429,1776.494261,8290.306550,-75077.358804
2442.565044,8586.388927,5181.441594,-72779.072310
2442.567659,5033.400406,10807.006753,-69714.690318
2442.570274,-8438.347739,1924.535449,-76456.330700
2442.572889,-10807.006753,-2960.823768,-77682.083497
2442.575504,-9178.553681,2812.782580,-71246.881314
2442.578119,-296.082377,1184.329507,-71093.662214
2442.580734,4441.235652,4293.194464,-73545.167808
2442.583349,4885.359217,6513.812290,-74617.701505
2442.585964,-2516.700203,7105.977043,-73085.510509
2442.588579,-3849.070898,-1332.370696,-74464.482406
2442.591194,3997.112087,2220.617826,-72319.415011
2442.593810,-740.205942,-296.082377,-73391.948708
2442.596425,-296.082377,6069.688724,-75230.577904
2442.599040,-10510.924376,3404.947333,-75996.673402
2442.601655,-7254.018232,8142.265362,-71246.881314
2442.604270,-7402.059420,12435.459826,-70787.224015
2442.606885,-5921.647536,4441.235652,-77069.207099
2442.609500,2960.823768,2516.700203,-74924.139704
2442.612115,8734.430116,-888.247130,-70634.004916
2442.614730,-3701.029710,0.000000,-72932.291410
2442.617345,-13767.830521,1332.370696,-76762.768900
2442.619960,-6069.688724,1776.494261,-75383.797003
2442.622575,1036.288319,3108.864956,-71093.662214
2442.625190,8290.306550,6957.935855,-70787.224015
2442.627805,14656.077652,-6661.853478,-75383.797003
2442.630420,12287.418637,-6957.935855,-74617.701505
2442.633035,1924.535449,-2368.659014,-72319.415011
2442.635650,-7994.224174,-5181.441594,-75843.454302
2442.638266,-7254.018232,-7550.100608,-75383.797003
2442.640881,9770.718434,2220.617826,-69255.033019
2442.643496,17172.777854,1628.453072,-70787.224015
2442.646111,10362.883188,-592.164754,-75690.235202
2442.648726,888.247130,888.247130,-76456.330700
2442.651340,-2516.700203,-888.247130,-73698.386908
2442.653955,740.205942,-3849.070898,-73851.606007
2442.656570,888.247130,-6217.729913,-72779.072310
2442.659185,5033.400406,0.000000,-71553.319513
2442.661799,148.041188,5033.400406,-73851.606007
2442.664414,-592.164754,-1776.494261,-74924.139704
2442.667029,8290.306550,-2516.700203,-71553.319513
2442.669644,8586.388927,-2664.741391,-73698.386908
2442.672259,8142.265362,-14359.995275,-77222.426198
2442.674873,6957.935855,-3997.112087,-71400.100414
2442.677488,296.082377,-2516.700203,-71859.757712
2442.680103,-5181.441594,2072.576638,-73851.606007
2442.682718,-4589.276840,1924.535449,-76762.768900
2442.685333,9770.718434,4589.276840,-71706.538613
2442.687947,14211.954086,740.205942,-70480.785816
2442.690562,296.082377,-740.205942,-74311.263306
2442.693177,-5477.523971,-3404.947333,-77375.645298
2442.695792,-11103.089130,-148.041188,-74004.825107
2442.698407,-10510.924376,9770.718434,-70480.785816
2442.701021,-3552.988522,6513.812290,-73238.729609
2442.703636,9770.718434,4885.359217,-74617.701505
2442.706251,9918.759623,8586.388927,-71553.319513
2442.708866,1184.329507,7550.100608,-73545.167808
2442.711480,-13471.748144,740.205942,-77222.426198
2442.714095,-13323.706956,-1480.411884,-74311.263306
2442.716710,2220.617826,4885.359217,-69867.909418
2442.719325,1924.535449,-1184.329507,-72779.072310
2442.721940,2960.823768,1924.535449,-74924.139704
2442.724554,888.247130,14359.995275,-73238.729609
2442.727169,-5181.441594,-1184.329507,-75690.235202
2442.729784,-740.205942,-444.123565,-72319.415011
2442.732399,-3849.070898,2664.741391,-72166.195912
2442.735014,-3552.988522,1332.370696,-75996.673402
2442.737628,-3404.947333,8586.388927,-74617.701505
2442.740243,-9030.512492,10510.924376,-72012.976812
2442.742858,-5921.647536,11991.336260,-72932.291410
2442.745473,-6217.729913,5181.441594,-75843.454302
2442.748088,4441.235652,3552.988522,-74464.482406
2442.750702,4589.276840,-1036.288319,-71246.881314
2442.753316,296.082377,-3552.988522,-74158.044206
2442.755929,-11251.130318,1184.329507,-73698.386908
2442.758542,-6513.812290,3701.029710,-74770.920605
2442.761156,1924.535449,5329.482782,-71400.100414
2442.763769,6809.894666,3849.070898,-72932.291410
2442.766382,14359.995275,-5625.565159,-75843.454302
2442.768996,10510.924376,-3997.112087,-73085.510509
2442.771609,-2516.700203,-4589.276840,-72166.195912
2442.774222,-8438.347739,-6957.935855,-75843.454302
2442.776836,-3701.029710,-4885.359217,-75690.235202
2442.779449,8882.471304,740.205942,-70634.004916
2442.782062,15840.407159,740.205942,-71093.662214
2442.784676,11251.130318,1628.453072,-74617.701505
2442.787289,-592.164754,1184.329507,-74464.482406
2442.789902,444.123565,-740.205942,-74158.044206
2442.792516,1332.370696,-2812.782580,-72779.072310
2442.795129,4145.153275,-6957.935855,-74158.044206
2442.797742,5033.400406,6661.853478,-71859.757712
2442.800356,-2516.700203,-1036.288319,-75996.673402
2442.802969,2220.617826,-2368.659014,-73391.948708
2442.805582,3997.112087,-444.123565,-71400.100414
2442.808196,6957.935855,-9622.677246,-75230.577904
2442.810809,9918.759623,-8734.430116,-73085.510509
2442.813423,5625.565159,-6069.688724,-73238.729609
2442.816036,-3108.864956,-148.041188,-73545.167808
2442.818649,-5773.606348,1776.494261,-75690.235202
2442.821263,888.247130,5477.523971,-74311.263306
2442.823876,10510.924376,-1924.535449,-71859.757712
2442.826489,10066.800811,1332.370696,-71246.881314
2442.829103,-1924.535449,-888.247130,-74617.701505
2442.831716,-5625.565159,-3701.029710,-77222.426198
2442.834329,-10658.965565,5921.647536,-73238.729609
2442.836943,-10214.842000,6365.771101,-72779.072310
2442.839556,3701.029710,4441.235652,-74311.263306
2442.842169,8882.471304,5773.606348,-72625.853210
2442.844783,5033.400406,10955.047942,-70174.347617
2442.847396,-7994.224174,592.164754,-76762.768900
2442.850009,-10510.924376,1628.453072,-77375.645298
2442.852623,-9770.718434,2516.700203,-72166.195912
2442.855236,2516.700203,1480.411884,-71246.881314
2442.857847,3256.906145,5625.565159,-72319.415011
2442.860459,-1776.494261,7105.977043,-73545.167808
2442.863070,-2220.617826,2072.576638,-75996.673402
2442.865682,444.123565,-592.164754,-73391.948708
2442.868293,-1332.370696,3108.864956,-71400.100414
2442.870905,148.041188,2664.741391,-73698.386908
2442.873516,-5625.565159,4441.235652,-76762.768900
2442.876128,-10807.006753,6513.812290,-73391.948708
2442.878739,-7846.182985,15100.201217,-70480.785816
2442.881351,-8438.347739,9770.718434,-73698.386908
2442.883962,6069.688724,-148.041188,-76149.892501
2442.886574,6809.894666,-444.123565,-71093.662214
2442.889185,-1480.411884,-740.205942,-72779.072310
2442.891797,-11991.336260,1332.370696,-76149.892501
2442.894408,-8290.306550,-1776.494261,-76762.768900
2442.897020,0.000000,4885.359217,-70787.224015
2442.899631,6365.771101,7254.018232,-70940.443115
2442.902243,14508.036463,-6069.688724,-76456.330700
2442.904854,13323.706956,-5773.606348,-73698.386908
2442.907466,-3849.070898,-2516.700203,-72012.976812
2442.910077,-9030.512492,-9030.512492,-78448.178995
2442.912689,-888.247130,-3552.988522,-73391.948708
2442.915300,13619.789333,0.000000,-69408.252119
2442.917912,17764.942608,1480.411884,-71400.100414
2442.920523,4293.194464,-2664.741391,-77528.864398
2442.923135,-6217.729913,1924.535449,-75077.358804
2442.925746,-3256.906145,-2072.576638,-74924.139704
2442.928358,0.000000,-4441.235652,-73698.386908
2442.930969,2664.741391,-1628.453072,-71706.538613
2442.933581,1628.453072,740.205942,-74311.263306
2442.936192,1332.370696,-3404.947333,-74770.920605
2442.938804,4293.194464,-1628.453072,-73545.167808
2442.941415,9030.512492,-4293.194464,-73238.729609
2442.944027,8734.430116,-7846.182985,-74464.482406
2442.946638,6365.771101,-12879.583391,-75077.358804
2442.949250,1332.370696,-2960.823768,-71706.538613
2442.951861,-3108.864956,3256.906145,-72166.195912
2442.954473,-2220.617826,4737.318029,-75383.797003
2442.957084,9178.553681,-1776.494261,-75077.358804
2442.959695,12287.418637,2812.782580,-67876.061123
2442.962304,-2960.823768,1776.494261,-73085.510509
2442.964912,-8142.265362,-9178.553681,-80133.589091
2442.967520,-11103.089130,4293.194464,-72625.853210
2442.970128,-9918.759623,9622.677246,-70327.566716
2442.972736,444.123565,8438.347739,-73698.386908
2442.975344,8882.471304,296.082377,-76303.111601
2442.977952,7698.141797,9326.594869,-70021.128517
2442.980560,-2812.782580,6809.894666,-72779.072310
2442.983168,-14952.160028,740.205942,-78601.398095
2442.985776,-10658.965565,-148.041188,-73698.386908
2442.988384,1628.453072,6661.853478,-69255.033019
2442.990992,3701.029710,-1184.329507,-74004.825107
2442.993600,740.205942,148.041188,-74770.920605
2442.996208,-2072.576638,10066.800811,-72319.415011
2442.998816,-5625.565159,1924.535449,-74617.701505
2443.001424,-4145.153275,-444.123565,-74311.263306
2443.004033,888.247130,3552.988522,-72779.072310
2443.006641,-3701.029710,5477.523971,-75690.235202
2443.009249,-9326.594869,4737.318029,-75537.016103
2443.011857,-9178.553681,14359.995275,-71246.881314
2443.014465,-6957.935855,11399.171507,-72166.195912
2443.017073,3404.947333,1628.453072,-77222.426198
2443.019681,4737.318029,-5181.441594,-74311.263306
2443.022289,-296.082377,2220.617826,-69408.252119
2443.024897,-9622.677246,2664.741391,-74004.825107
2443.027505,-5773.606348,-1628.453072,-78294.959896
2443.030113,1776.494261,3997.112087,-70634.004916
2443.032721,8142.265362,6809.894666,-69561.471218
2443.035329,13175.665768,-6661.853478,-76609.549800
2443.037937,9770.718434,-6661.853478,-75230.577904
2443.040545,-2368.659014,-1628.453072,-70480.785816
2443.043153,-6069.688724,-3997.112087,-74617.701505
2443.045761,-2960.823768,-6957.935855,-77375.645298
2443.048370,7994.224174,-2072.576638,-71706.538613
2443.050978,15988.448347,2812.782580,-68795.375720
2443.053586,6957.935855,-1036.288319,-75843.454302
2443.056194,-3849.070898,-1036.288319,-77222.426198
2443.058802,-740.205942,-148.041188,-72932.291410
2443.061410,3849.070898,740.205942,-72319.415011
2443.064018,4441.235652,-4145.153275,-74770.920605
2443.066623,4737.318029,2664.741391,-73851.606007
2443.069228,-2072.576638,-3108.864956,-74158.044206
2443.071833,2960.823768,-148.041188,-72779.072310
2443.074438,5477.523971,-6513.812290,-75077.358804
2443.077042,13323.706956,-8290.306550,-72472.634111
2443.079647,6513.812290,-5773.606348,-72779.072310
2443.082252,-740.205942,-6069.688724,-74770.920605
2443.084857,-7402.059420,4145.153275,-73238.729609
2443.087462,-888.247130,5625.565159,-74158.044206
2443.090067,11251.130318,-1628.453072,-74617.701505
2443.092672,7846.182985,2072.576638,-70480.785816
2443.095277,1036.288319,2664.741391,-72319.415011
2443.097882,-5773.606348,-3552.988522,-77375.645298
2443.100487,-12139.377449,1924.535449,-74770.920605
2443.103092,-10066.800811,8734.430116,-71400.100414
2443.105697,3701.029710,6069.688724,-73851.606007
2443.108302,8734.430116,2960.823768,-74464.482406
2443.110907,4737.318029,7550.100608,-70174.347617
2443.113511,-5773.606348,3552.988522,-73698.386908
2443.116116,-12583.501014,2960.823768,-76609.549800
2443.118721,-6809.894666,1332.370696,-74464.482406
2443.121326,5625.565159,2368.659014,-70634.004916
2443.123931,5181.441594,2368.659014,-72625.853210
2443.126536,-2812.782580,2072.576638,-75077.358804
2443.129141,-1776.494261,3997.112087,-73851.606007
2443.131746,2960.823768,2368.659014,-73545.167808
2443.134351,592.164754,-444.123565,-73851.606007
2443.136956,-2220.617826,4737.318029,-73698.386908
2443.139561,-9030.512492,4441.235652,-74464.482406
2443.142166,-11843.295072,12583.501014,-72012.976812
2443.144771,-8734.430116,9622.677246,-74924.139704
2443.147375,-1184.329507,9178.553681,-74004.825107
2443.149980,9474.636058,-1332.370696,-73085.510509
2443.152585,2812.782580,-1036.288319,-72472.634111
2443.155190,-12287.418637,3701.029710,-74617.701505
2443.157795,-10362.883188,-2516.700203,-76303.111601
2443.160400,-1480.411884,296.082377,-73238.729609
2443.163005,5477.523971,4885.359217,-70634.004916
2443.165610,14952.160028,148.041188,-73085.510509
2443.168215,13619.789333,-8290.306550,-74617.701505
2443.170817,4145.153275,-3108.864956,-71859.757712
2443.173419,-7254.018232,-1776.494261,-74464.482406
2443.176021,-7105.977043,-7105.977043,-76762.768900
2443.178623,7698.141797,1628.453072,-70327.566716
2443.181225,14656.077652,-1184.329507,-71093.662214
2443.183827,11103.089130,-2516.700203,-75383.797003
2443.186428,-888.247130,296.082377,-74311.263306
2443.189030,1332.370696,2960.823768,-73238.729609
2443.191632,-740.205942,-5329.482782,-74311.263306
2443.194234,5033.400406,-4441.235652,-73851.606007
2443.196836,3849.070898,5329.482782,-72166.195912
2443.199438,-5329.482782,-6217.729913,-74311.263306
2443.202040,6365.771101,-2664.741391,-73545.167808
2443.204642,8438.347739,-2812.782580,-72779.072310
2443.207244,13027.624579,-11695.253884,-75537.016103
2443.209846,7846.182985,-5921.647536,-73085.510509
2443.212448,-2368.659014,-8290.306550,-74158.044206
2443.215050,-7254.018232,6809.894666,-71706.538613
2443.217652,-1036.288319,1776.494261,-75996.673402
2443.220254,10658.965565,740.205942,-74311.263306
2443.222856,11843.295072,2072.576638,-70174.347617
2443.225458,1184.329507,2664.741391,-75383.797003
2443.228060,-11991.336260,-6661.853478,-77069.207099
2443.230662,-13767.830521,7105.977043,-71246.881314
2443.233264,-10807.006753,9474.636058,-71859.757712
2443.235866,4293.194464,4589.276840,-76762.768900
2443.238468,10510.924376,3997.112087,-73085.510509
2443.241069,7402.059420,8734.430116,-69561.471218
2443.243671,-5477.523971,3256.906145,-74311.263306
2443.246273,-13323.706956,-740.205942,-78907.836294
2443.248875,-10214.842000,3256.906145,-73085.510509
2443.251477,2664.741391,3256.906145,-71246.881314
2443.254079,4589.276840,444.123565,-74617.701505
2443.256681,-740.205942,5921.647536,-73391.948708
2443.259283,-4589.276840,-148.041188,-74311.263306
2443.261885,888.247130,5181.441594,-72779.072310
2443.264487,-3997.112087,-2072.576638,-75537.016103
2443.267089,-2516.700203,7105.977043,-72166.195912
2443.269691,-11991.336260,8438.347739,-73085.510509
2443.272293,-12731.542202,7402.059420,-75843.454302
2443.274892,-1332.370696,10362.883188,-73238.729609
2443.277491,7846.182985,2664.741391,-73085.510509
2443.280091,6513.812290,1480.411884,-72932.291410
2443.282690,-4737.318029,-2220.617826,-75383.797003
2443.285289,-12435.459826,1036.288319,-74311.263306
2443.287889,-5625.565159,-2516.700203,-74158.044206
2443.290488,888.247130,3404.947333,-71859.757712
2443.293087,10510.924376,2516.700203,-72625.853210
2443.295687,17172.777854,-5921.647536,-74464.482406
2443.298286,5921.647536,-4293.194464,-73391.948708
2443.300885,-8142.265362,-3701.029710,-73085.510509
2443.303485,-10066.800811,-6513.812290,-75230.577904
2443.306084,-2960.823768,-1332.370696,-74158.044206
2443.308683,10362.883188,-296.082377,-71553.319513
2443.311283,15692.365970,-444.123565,-71859.757712
2443.313882,2368.659014,-2220.617826,-74617.701505
2443.316481,-2812.782580,-1776.494261,-75383.797003
2443.319080,-1332.370696,-2812.782580,-74311.263306
2443.321680,3701.029710,1036.288319,-72472.634111
2443.324279,4441.235652,5181.441594,-71093.662214
2443.326878,-1332.370696,-6069.688724,-75537.016103
2443.329478,5329.482782,-2664.741391,-72932.291410
2443.332077,7254.018232,-5181.441594,-73698.386908
2443.334676,8734.430116,-9770.718434,-76149.892501
2443.337276,4293.194464,-5477.523971,-74004.825107
2443.339875,-1776.494261,-7550.100608,-72319.415011
2443.342474,-3256.906145,6217.729913,-71706.538613
2443.345074,2960.823768,-444.123565,-75843.454302
2443.347673,12879.583391,1332.370696,-71859.757712
2443.350272,1924.535449,4441.235652,-71093.662214
2443.352871,-4885.359217,-592.164754,-77528.864398
2443.355471,-12435.459826,-4145.153275,-75996.673402
2443.358070,-11843.295072,8142.265362,-69561.471218
2443.360669,-5921.647536,10214.842000,-71246.881314
2443.363269,7105.977043,2516.700203,-78294.959896
2443.365868,9918.759623,4589.276840,-73545.167808
2443.368467,5921.647536,9326.594869,-69867.909418
2443.371067,-10214.842000,444.123565,-75843.454302
2443.373666,-17468.860231,-2812.782580,-76762.768900
2443.376265,-3552.988522,9474.636058,-68948.594820
2443.378820,444.123565,1924.535449,-73238.729609
2443.381375,3552.988522,296.082377,-76303.111601
2443.383930,1480.411884,7994.224174,-71859.757712
2443.386485,-9030.512492,1184.329507,-72472.634111
2443.389040,1480.411884,-740.205942,-75537.016103
2443.391595,-5477.523971,6069.688724,-74770.920605
2443.394150,-6661.853478,4441.235652,-72779.072310
2443.396705,-6513.812290,14359.995275,-70940.443115
2443.399260,-6217.729913,6365.771101,-74617.701505
2443.401815,888.247130,6957.935855,-73391.948708
2443.404370,5033.400406,2072.576638,-72932.291410
2443.406925,-888.247130,148.041188,-74311.263306
2443.409480,-11547.212695,1776.494261,-74924.139704
2443.412035,-7550.100608,-740.205942,-74464.482406
2443.414590,1332.370696,0.000000,-71246.881314
2443.417145,6957.935855,3552.988522,-71706.538613
2443.419700,15544.324782,-4145.153275,-76456.330700
2443.422255,10658.965565,-4145.153275,-74158.044206
2443.424810,-2220.617826,-5181.441594,-72166.195912
2443.427365,-9770.718434,-3701.029710,-74158.044206
2443.429920,-4737.318029,-6513.812290,-75077.358804
2443.432475,7254.018232,3701.029710,-70327.566716
2443.435030,15840.407159,-888.247130,-71859.757712
2443.437585,16284.530724,-2664.741391,-75996.673402
2443.440140,-3552.988522,592.164754,-74158.044206
2443.442695,-3701.029710,-3108.864956,-73391.948708
2443.445250,1924.535449,-148.041188,-72625.853210
2443.447805,888.247130,740.205942,-73851.606007
2443.450360,10658.965565,148.041188,-74770.920605
2443.452915,3701.029710,-296.082377,-72625.853210
2443.455470,6513.812290,-8586.388927,-71859.757712
2443.458025,9918.759623,-5181.441594,-74158.044206
2443.460580,5033.400406,-11399.171507,-76762.768900
2443.463135,0.000000,-3108.864956,-73085.510509
2443.465690,-3849.070898,-1332.370696,-72932.291410
2443.468246,7254.018232,3849.070898,-73085.510509
2443.470801,11695.253884,-2812.782580,-72625.853210
2443.473356,8586.388927,3404.947333,-72625.853210
2443.475911,-4885.359217,1480.411884,-75230.577904
2443.478466,-9178.553681,-1924.535449,-77528.864398
2443.481025,-14063.912898,4293.194464,-72166.195912
2443.483586,-9326.594869,7550.100608,-69561.471218
2443.486146,2220.617826,8142.265362,-74770.920605
2443.488707,9326.594869,2368.659014,-76303.111601
2443.491268,6661.853478,10214.842000,-71093.662214
2443.493829,-8586.388927,740.205942,-75383.797003
2443.496390,-14359.995275,0.000000,-76915.987999
2443.498950,-10362.883188,1332.370696,-72625.853210
2443.501511,3997.112087,6365.771101,-70480.785816
2443.504072,5773.606348,1776.494261,-73238.729609
2443.506633,4589.276840,8438.347739,-74311.263306
2443.509193,-2812.782580,-1924.535449,-75537.016103
2443.511754,2664.741391,1480.411884,-73238.729609
2443.514315,-6217.729913,4145.153275,-73698.386908
2443.516876,-9622.677246,3404.947333,-74617.701505
2443.519436,-6809.894666,15544.324782,-70174.347617
2443.521997,-4737.318029,8438.347739,-74311.263306
2443.524558,2812.782580,7254.018232,-74158.044206
2443.527119,6957.935855,-2368.659014,-73545.167808
2443.529679,-592.164754,5181.441594,-71706.538613
2443.532240,-13027.624579,-1332.370696,-75843.454302
2443.534801,-9770.718434,-148.041188,-76609.549800
2443.537362,0.000000,-1776.494261,-71706.538613
2443.539923,8142.265362,5329.482782,-70634.004916
2443.542483,16728.654289,-6365.771101,-77069.207099
2443.545044,11547.212695,-6513.812290,-75383.797003
2443.547605,-3108.864956,-1628.453072,-70327.566716
2443.550166,-9030.512492,-4441.235652,-75690.235202
2443.552726,-6661.853478,-6217.729913,-76915.987999
2443.555287,5625.565159,444.123565,-70480.785816
2443.557848,16432.571912,3849.070898,-70021.128517
2443.560409,11103.089130,-3108.864956,-76303.111601
2443.562969,-2368.659014,-740.205942,-73851.606007
2443.565530,-5329.482782,-5329.482782,-73238.729609
2443.568091,3997.112087,1036.288319,-72779.072310
2443.570652,-592.164754,1776.494261,-73851.606007
2443.573213,5921.647536,-5625.565159,-74924.139704
2443.575773,7698.141797,5033.400406,-71246.881314
2443.578334,5773.606348,-11251.130318,-74617.701505
2443.580895,10066.800811,-6069.688724,-72625.853210
2443.583461,2072.576638,-12287.418637,-75077.358804
2443.586027,-1184.329507,888.247130,-73851.606007
2443.588592,-4589.276840,1480.411884,-74158.044206
2443.591158,10658.965565,-1184.329507,-74004.825107
2443.593724,14359.995275,3404.947333,-70174.347617
2443.596290,3108.864956,5033.400406,-73238.729609
2443.598856,-5329.482782,-888.247130,-77528.864398
2443.601422,-11843.295072,-2516.700203,-75690.235202
2443.603987,-13323.706956,8734.430116,-69867.909418
2443.606553,-7994.224174,8586.388927,-72472.634111
2443.609119,5033.400406,3552.988522,-76609.549800
2443.611685,8586.388927,8882.471304,-71246.881314
2443.614251,740.205942,3701.029710,-73545.167808
2443.616817,-11103.089130,296.082377,-76609.549800
2443.619382,-16136.489536,-1924.535449,-74617.701505
2443.621948,-4441.235652,7846.182985,-70634.004916
2443.624514,1480.411884,3997.112087,-72625.853210
2443.627080,1480.411884,5033.400406,-74158.044206
2443.629646,1332.370696,2072.576638,-72779.072310
2443.632212,2368.659014,4589.276840,-72472.634111
2443.634777,-4145.153275,-3108.864956,-73851.606007
2443.637343,-5921.647536,7254.018232,-73851.606007
2443.639909,-11103.089130,8882.471304,-74617.701505
2443.642475,-8882.471304,12287.418637,-73391.948708
2443.645041,148.041188,7105.977043,-72319.415011
2443.647607,10214.842000,4441.235652,-73238.729609
2443.650172,1924.535449,0.000000,-73545.167808
2443.652738,-7550.100608,592.164754,-75537.016103
2443.655304,-11695.253884,2220.617826,-75996.673402
2443.657870,-1480.411884,-4441.235652,-73698.386908
2443.660436,7254.018232,4589.276840,-69867.909418
2443.663002,15100.201217,-3849.070898,-74770.920605
2443.665567,15692.365970,-4441.235652,-75537.016103
2443.668133,2516.700203,-5625.565159,-73238.729609
2443.670699,-7994.224174,-2220.617826,-72625.853210
2443.673265,-8586.388927,-7698.141797,-75690.235202
2443.675831,2072.576638,-148.041188,-73085.510509
2443.678397,11103.089130,1184.329507,-70940.443115
2443.680962,14804.118840,1924.535449,-73238.729609
2443.683528,3552.988522,-2072.576638,-75843.454302
2443.686098,-4589.276840,-7698.141797,-74311.263306
2443.688667,2368.659014,2516.700203,-70634.004916
2443.691236,-1776.494261,1332.370696,-72779.072310
2443.693806,4737.318029,-5773.606348,-77222.426198
2443.696375,4737.318029,2812.782580,-71706.538613
2443.698945,8734.430116,-7254.018232,-71093.662214
2443.701514,10807.006753,-6513.812290,-73545.167808
2443.704083,5773.606348,-11843.295072,-77222.426198
2443.706653,-2812.782580,1184.329507,-70787.224015
2443.709222,-3997.112087,-444.123565,-74464.482406
2443.711791,9622.677246,-296.082377,-75077.358804
2443.714361,10214.842000,1036.288319,-70174.347617
2443.716930,4441.235652,7254.018232,-71553.319513
2443.719500,-3997.112087,592.164754,-78141.740796
2443.722069,-9918.759623,-2664.741391,-78141.740796
2443.724638,-11843.295072,6809.894666,-69561.471218
2443.727208,-6661.853478,9030.512492,-71706.538613
2443.729777,5033.400406,2072.576638,-77528.864398
2443.732346,7698.141797,8438.347739,-71706.538613
2443.734916,592.164754,6365.771101,-71706.538613
2443.737485,-10510.924376,296.082377,-77222.426198
2443.740055,-11547.212695,-2960.823768,-76149.892501
2443.742624,444.123565,6661.853478,-69714.690318
2443.745193,1480.411884,3404.947333,-71859.757712
2443.747763,-296.082377,6069.688724,-75383.797003
2443.750332,-296.082377,1480.411884,-74158.044206
2443.752901,-444.123565,4589.276840,-71246.881314
2443.755471,-4145.153275,3849.070898,-75077.358804
2443.758040,-11103.089130,5625.565159,-75843.454302
2443.760610,-9178.553681,12287.418637,-71246.881314
2443.763179,444.123565,9178.553681,-72166.195912
2443.765748,5033.400406,4441.235652,-74617.701505
2443.768318,5477.523971,-3552.988522,-73851.606007
2443.770887,-4589.276840,8142.265362,-72166.195912
2443.773456,-13767.830521,1036.288319,-77222.426198
2443.776026,-3552.988522,-5329.482782,-76456.330700
2443.778595,3552.988522,296.082377,-69408.252119
2443.781164,10807.006753,5329.482782,-69408.252119
2443.783734,15396.283594,-9178.553681,-78448.178995
2443.786303,7402.059420,-6957.935855,-75383.797003
2443.788875,-5773.606348,592.164754,-69561.471218
2443.791448,-9178.553681,-6957.935855,-76303.111601
2443.794020,-3256.906145,-3404.947333,-75537.016103
2443.796592,11103.089130,592.164754,-70174.347617
2443.799165,17912.983796,7105.977043,-70021.128517
2443.801737,6365.771101,-6513.812290,-78448.178995
2443.804309,-1332.370696,-5773.606348,-75383.797003
2443.806881,-3108.864956,2812.782580,-68948.594820
2443.809454,592.164754,-2072.576638,-74311.263306
2443.812026,7105.977043,-2072.576638,-76609.549800
2443.814598,4293.194464,-1184.329507,-71859.757712
2443.817170,10807.006753,-2664.741391,-68795.375720
2443.819743,7698.141797,-9030.512492,-75230.577904
2443.822315,5181.441594,-11251.130318,-77222.426198
2443.824887,-1480.411884,-148.041188,-71400.100414
2443.827459,-1480.411884,-740.205942,-74158.044206
2443.830032,9326.594869,-4885.359217,-75383.797003
2443.832604,11843.295072,3256.906145,-69255.033019
2443.835176,2220.617826,8882.471304,-71706.538613
2443.837748,-4293.194464,-740.205942,-79214.274493
2443.840321,-10510.924376,-1332.370696,-76762.768900
2443.842893,-11103.089130,8882.471304,-67876.061123
2443.845465,-5033.400406,10066.800811,-71553.319513
2443.848037,3404.947333,888.247130,-78907.836294
2443.850610,7105.977043,5921.647536,-72166.195912
2443.853182,2072.576638,3997.112087,-72166.195912
2443.855754,-10807.006753,-1924.535449,-78294.959896
2443.858326,-15692.365970,-2220.617826,-74617.701505
2443.860899,296.082377,9030.512492,-69101.813920
2443.863471,444.123565,3404.947333,-74158.044206
2443.866043,-1628.453072,740.205942,-77375.645298
2443.868615,-740.205942,5181.441594,-72472.634111
2443.871151,-3849.070898,5773.606348,-70634.004916
2443.873686,-3404.947333,1776.494261,-75383.797003
2443.876222,-6957.935855,3404.947333,-77222.426198
2443.878758,-9030.512492,11843.295072,-72012.976812
2443.881293,-1776.494261,11547.212695,-70787.224015
2443.883829,592.164754,1776.494261,-75690.235202
2443.886364,4441.235652,-148.041188,-73085.510509
2443.888900,-6513.812290,8882.471304,-71706.538613
2443.891436,-9918.759623,2072.576638,-77069.207099
2443.893971,-2368.659014,-11251.130318,-76149.892501
2443.896507,5625.565159,3849.070898,-68642.156621
2443.899042,9770.718434,3849.070898,-70787.224015
2443.901578,12731.542202,-12583.501014,-79520.712692
2443.904114,5181.441594,-3552.988522,-72932.291410
2443.906649,-3552.988522,740.205942,-70480.785816
2443.909185,-4885.359217,-7698.141797,-76149.892501
2443.911720,1184.329507,-3701.029710,-74617.701505
2443.914256,9178.553681,3701.029710,-69561.471218
2443.916792,13175.665768,2516.700203,-73238.729609
2443.919327,-888.247130,-2812.782580,-78448.178995
2443.921863,-3997.112087,-4293.194464,-74770.920605
2443.924398,-3404.947333,-5033.400406,-70327.566716
2443.926934,4885.359217,-4589.276840,-75843.454302
2443.929470,5625.565159,2220.617826,-73085.510509
2443.932005,6513.812290,-3256.906145,-71706.538613
2443.934541,6069.688724,-3256.906145,-71400.100414
2443.937076,3256.906145,-13471.748144,-78754.617194
2443.939612,2368.659014,-3404.947333,-73085.510509
2443.942147,-1184.329507,-2072.576638,-71706.538613
2443.944683,2516.700203,3701.029710,-73085.510509
2443.947219,12879.583391,-11547.212695,-75537.016103
2443.949754,11251.130318,4589.276840,-69101.813920
2443.952290,-5773.606348,7698.141797,-74617.701505
2443.954825,-10510.924376,-3701.029710,-80286.808190
2443.957361,-12139.377449,6957.935855,-71246.881314
2443.959897,-8290.306550,11843.295072,-68335.718422
2443.962432,2368.659014,5181.441594,-74924.139704
2443.964968,8290.306550,-148.041188,-77682.083497
2443.967503,6513.812290,9474.636058,-70940.443115
2443.970039,-6069.688724,2812.782580,-73545.167808
2443.972584,-13915.871710,-3552.988522,-77528.864398
2443.975128,-8438.347739,2368.659014,-71093.662214
2443.977673,1924.535449,4737.318029,-70174.347617
2443.980217,6365.771101,6513.812290,-74311.263306
2443.982762,-1036.288319,2812.782580,-75843.454302
2443.985307,-2220.617826,-296.082377,-72932.291410
2443.987851,-7846.182985,7994.224174,-71706.538613
2443.990396,-9178.553681,1628.453072,-77988.521696
2443.992941,-5625.565159,9770.718434,-73391.948708
2443.995485,-4145.153275,10510.924376,-70327.566716
2443.998030,2368.659014,1480.411884,-75383.797003
2444.000574,3404.947333,3849.070898,-74158.044206
2444.003119,-6365.771101,3997.112087,-74004.825107
2444.005664,-13915.871710,5773.606348,-74464.482406
2444.008208,-5477.523971,-7105.977043,-77375.645298
2444.010753,5477.523971,148.041188,-69101.813920
2444.013297,11399.171507,2368.659014,-68642.156621
2444.015842,17468.860231,-6365.771101,-77988.521696
2444.018387,10510.924376,-10066.800811,-77682.083497
2444.020931,-5181.441594,444.123565,-69561.471218
2444.023476,-9030.512492,-5181.441594,-73391.948708
2444.026020,-3108.864956,-4589.276840,-76149.892501
2444.028565,9770.718434,1628.453072,-71246.881314
2444.031110,16728.654289,8438.347739,-70327.566716
2444.033654,3552.988522,-4441.235652,-77988.521696
2444.036199,-1184.329507,-3849.070898,-75843.454302
2444.038744,-4737.318029,-7550.100608,-71553.319513
2444.041288,1184.329507,2664.741391,-70021.128517
2444.043833,-148.041188,-3108.864956,-76762.768900
2444.046377,10658.965565,-5921.647536,-74770.920605
2444.048922,9770.718434,-888.247130,-70327.566716
2444.051467,6809.894666,-8882.471304,-74770.920605
2444.054011,148.041188,-6217.729913,-75843.454302
2444.056556,-3701.029710,-5625.565159,-74158.044206
2444.059100,-1184.329507,7254.018232,-70940.443115
2444.061645,10214.842000,-10955.047942,-76609.549800
2444.064190,12879.583391,1332.370696,-70174.347617
2444.066734,148.041188,8142.265362,-70634.004916
2444.069279,-10362.883188,-1628.453072,-79980.369991
2444.071824,-13767.830521,5625.565159,-73698.386908
2444.074376,-10510.924376,13471.748144,-68642.156621
2444.076928,-296.082377,4885.359217,-74464.482406
2444.079480,9178.553681,-740.205942,-77069.207099
2444.082033,8142.265362,9178.553681,-70021.128517
2444.084585,-2516.700203,3997.112087,-72779.072310
2444.087137,-10362.883188,-1924.535449,-78448.178995
2444.089689,-10955.047942,-1332.370696,-74464.482406
2444.092242,-1480.411884,6809.894666,-68335.718422
2444.094794,1332.370696,888.247130,-75230.577904
2444.097346,592.164754,2220.617826,-75230.577904
2444.099899,-1776.494261,3701.029710,-72166.195912
2444.102451,-5773.606348,10510.924376,-71706.538613
2444.105003,-7254.018232,0.000000,-77988.521696
2444.107555,-6365.771101,7254.018232,-75383.797003
2444.110108,-2960.823768,10362.883188,-69561.471218
2444.112660,1924.535449,7698.141797,-71553.319513
2444.115212,888.247130,444.123565,-76303.111601
2444.117764,-6809.894666,7846.182985,-73851.606007
2444.120317,-10362.883188,5921.647536,-74004.825107
2444.122869,-888.247130,-7994.224174,-76149.892501
2444.125421,6957.935855,-1628.453072,-69561.471218
2444.127974,12731.542202,1184.329507,-69714.690318
2444.130526,11103.089130,-8586.388927,-77835.302597
2444.133078,5181.441594,-7846.182985,-77988.521696
2444.135630,-6365.771101,296.082377,-70480.785816
2444.138183,-5773.606348,-5181.441594,-71859.757712
2444.140735,2220.617826,-4441.235652,-75843.454302
2444.143287,11251.130318,2664.741391,-71400.100414
2444.145840,13175.665768,5329.482782,-71706.538613
2444.148392,-1924.535449,-3701.029710,-77069.207099
2444.150944,-3404.947333,-9622.677246,-76456.330700
2444.153496,2664.741391,-740.205942,-68948.594820
2444.156049,3256.906145,3849.070898,-70480.785816
2444.158601,11547.212695,-6809.894666,-77988.521696
2444.161153,9326.594869,-5329.482782,-74770.920605
2444.163705,5181.441594,-3552.988522,-71093.662214
2444.166258,2072.576638,-9918.759623,-77988.521696
2444.168810,-2220.617826,-3256.906145,-76149.892501
2444.171362,296.082377,3552.988522,-70787.224015
2444.173915,10955.047942,-5921.647536,-73238.729609
2444.176436,11843.295072,-3552.988522,-74158.044206
2444.178957,-1776.494261,6809.894666,-71400.100414
2444.181478,-7846.182985,3404.947333,-75843.454302
2444.184000,-13471.748144,2368.659014,-76609.549800
2444.186521,-11547.212695,8586.388927,-70940.443115
2444.189042,1036.288319,11399.171507,-70940.443115
2444.191563,7105.977043,888.247130,-76149.892501
2444.194085,4145.153275,4293.194464,-74004.825107
2444.196606,-4145.153275,4441.235652,-72779.072310
2444.199127,-10066.800811,0.000000,-75077.358804
2444.201648,-8882.471304,-888.247130,-74924.139704
2444.204170,4589.276840,4145.153275,-71553.319513
2444.206691,-296.082377,1332.370696,-72319.415011
2444.209212,1480.411884,3997.112087,-75230.577904
2444.211734,-4145.153275,6217.729913,-74158.044206
2444.214255,-10066.800811,7402.059420,-71706.538613
2444.216776,-5181.441594,10362.883188,-73851.606007
2444.219297,-6957.935855,2072.576638,-77222.426198
2444.221819,2368.659014,6661.853478,-71400.100414
2444.224340,5181.441594,8438.347739,-68488.937521
2444.226861,3404.947333,1332.370696,-76303.111601
2444.229382,-10214.842000,5921.647536,-76609.549800
2444.231904,-14211.954086,5477.523971,-75383.797003
2444.234425,-2812.782580,-2960.823768,-72932.291410
2444.236946,10807.006753,-3552.988522,-70480.785816
2444.239468,15100.201217,-3849.070898,-72472.634111
2444.241989,15100.201217,-9178.553681,-75843.454302
2444.244510,2072.576638,-3108.864956,-74924.139704
2444.247031,-8438.347739,-2664.741391,-74158.044206
2444.249553,-8734.430116,-5477.523971,-73391.948708
2444.252074,1776.494261,-740.205942,-72166.195912
2444.254595,11991.336260,3997.112087,-71400.100414
2444.257116,18653.189738,2072.576638,-74004.825107
2444.259638,-592.164754,-148.041188,-75996.673402
2444.262159,-5181.441594,-3849.070898,-74464.482406
2444.264680,-740.205942,-9918.759623,-73391.948708
2444.267201,6365.771101,1628.453072,-71246.881314
2444.269723,8882.471304,-6217.729913,-74311.263306
2444.272244,11399.171507,-592.164754,-72625.853210
2444.274765,6661.853478,-7550.100608,-72472.634111
2444.277299,2664.741391,-3552.988522,-74158.044206
2444.279833,-3404.947333,-5181.441594,-76609.549800
2444.282367,2812.782580,-1628.453072,-72166.195912
2444.284901,13175.665768,-3404.947333,-70480.785816
2444.287435,13619.789333,-1628.453072,-72625.853210
2444.289969,-2368.659014,7254.018232,-74311.263306
2444.292503,-9474.636058,-740.205942,-78907.836294
2444.295037,-15396.283594,8586.388927,-72932.291410
2444.297571,-13027.624579,10807.006753,-70634.004916
2444.300105,-1036.288319,8142.265362,-73238.729609
2444.302639,7698.141797,740.205942,-75690.235202
2444.305172,6661.853478,7254.018232,-72012.976812
2444.307706,-3701.029710,740.205942,-75537.016103
2444.310240,-11103.089130,-3997.112087,-77069.207099
2444.312774,-7550.100608,1776.494261,-72012.976812
2444.315308,-1036.288319,3404.947333,-70787.224015
2444.317842,1776.494261,9622.677246,-72932.291410
2444.320376,-888.247130,1924.535449,-75996.673402
2444.322910,-2664.741391,5773.606348,-72166.195912
2444.325444,-9770.718434,5329.482782,-73238.729609
2444.327978,-6661.853478,6809.894666,-75230.577904
2444.330512,-5477.523971,6809.894666,-73698.386908
2444.333046,3404.947333,6217.729913,-71093.662214
2444.335580,2812.782580,6217.729913,-72166.195912
2444.338114,-3256.906145,-148.041188,-76149.892501
2444.340647,-11251.130318,10658.965565,-74464.482406
2444.343181,-7994.224174,2220.617826,-75383.797003
2444.345715,3552.988522,-3701.029710,-72932.291410
2444.348249,11103.089130,-2664.741391,-70174.347617
2444.350783,17172.777854,-5329.482782,-73085.510509
2444.353317,11695.253884,-10066.800811,-77375.645298
2444.355851,-2220.617826,-2220.617826,-72779.072310
2444.358385,-6069.688724,-740.205942,-72472.634111
2444.360919,-3552.988522,-3552.988522,-74464.482406
2444.363453,8586.388927,-1184.329507,-72012.976812
2444.365987,14656.077652,4885.359217,-71246.881314
2444.368521,5329.482782,1924.535449,-75537.016103
2444.371055,-4885.359217,-8290.306550,-78141.740796
2444.373589,-2368.659014,-2516.700203,-72472.634111
2444.376123,-2220.617826,-888.247130,-69255.033019
2444.378667,8882.471304,-7402.059420,-74311.263306
2444.381212,13027.624579,-5181.441594,-73698.386908
2444.383756,7846.182985,-3256.906145,-71859.757712
2444.386301,-1332.370696,-3701.029710,-74770.920605
2444.388845,-3849.070898,-5625.565159,-77988.521696
2444.391390,-3404.947333,-740.205942,-72166.195912
2444.393934,10510.924376,-4293.194464,-70787.224015
2444.396479,16432.571912,-5477.523971,-71246.881314
2444.399023,5773.606348,3256.906145,-73545.167808
2444.401568,-9474.636058,4589.276840,-76762.768900
2444.404112,-15840.407159,7550.100608,-76149.892501
2444.406657,-15692.365970,8882.471304,-71706.538613
2444.409201,-1184.329507,10214.842000,-69408.252119
2444.411746,9770.718434,4885.359217,-73698.386908
2444.414291,10807.006753,3552.988522,-74311.263306
2444.416835,888.247130,2664.741391,-74617.701505
2444.419380,-10658.965565,592.164754,-74924.139704
2444.421924,-17616.901420,-2220.617826,-75077.358804
2444.424469,-5625.565159,148.041188,-70940.443115
2444.427013,5773.606348,6513.812290,-71400.100414
2444.429558,2516.700203,9918.759623,-74004.825107
2444.432102,-5477.523971,1332.370696,-76303.111601
2444.434647,-6217.729913,6809.894666,-73238.729609
2444.437191,-10955.047942,6661.853478,-74158.044206
2444.439736,-6069.688724,6217.729913,-75537.016103
2444.442280,1332.370696,5477.523971,-72166.195912
2444.444825,3997.112087,4441.235652,-70021.128517
2444.447370,-888.247130,5921.647536,-73085.510509
2444.449914,-12435.459826,5181.441594,-77988.521696
2444.452459,-9030.512492,3849.070898,-73698.386908
2444.455003,1924.535449,-5625.565159,-70940.443115
2444.457548,8290.306550,444.123565,-70021.128517
2444.460092,15396.283594,-10510.924376,-76303.111601
2444.462637,13767.830521,-4589.276840,-73851.606007
2444.465181,444.123565,-6661.853478,-74311.263306
2444.467726,-6661.853478,-1924.535449,-74158.044206
2444.470270,-5477.523971,-4441.235652,-75077.358804
2444.472815,4293.194464,1628.453072,-69714.690318
2444.475359,11695.253884,2516.700203,-73085.510509
2444.477904,4885.359217,296.082377,-76303.111601
2444.480456,-1184.329507,888.247130,-74770.920605
2444.483009,-2960.823768,-6217.729913,-72779.072310
2444.485561,2812.782580,-4737.318029,-72625.853210
2444.488114,7846.182985,-3404.947333,-73085.510509
2444.490666,13175.665768,-7550.100608,-75077.358804
2444.493219,8438.347739,-296.082377,-71093.662214
2444.495771,444.123565,-5773.606348,-74924.139704
2444.498324,-2960.823768,-2368.659014,-76303.111601
2444.500876,888.247130,-740.205942,-73851.606007
2444.503428,13619.789333,-5033.400406,-70940.443115
2444.505981,11991.336260,-5921.647536,-71246.881314
2444.508533,1184.329507,5773.606348,-74158.044206
2444.511086,-10658.965565,2368.659014,-78754.617194
2444.513638,-16136.489536,9030.512492,-75537.016103
2444.516191,-14508.036463,10214.842000,-71093.662214
2444.518743,-1628.453072,10807.006753,-70787.224015
2444.521295,10955.047942,3404.947333,-74004.825107
2444.523848,7254.018232,2664.741391,-73391.948708
2444.526400,-4293.194464,2220.617826,-75077.358804
2444.528953,-11399.171507,-444.123565,-77069.207099
2444.531505,-14804.118840,-1332.370696,-73545.167808
2444.534058,888.247130,5921.647536,-69867.909418
2444.536610,4441.235652,3849.070898,-73085.510509
2444.539163,1628.453072,6661.853478,-74464.482406
2444.541715,-6513.812290,2664.741391,-74158.044206
2444.544267,-13175.665768,8438.347739,-73545.167808
2444.546820,-12287.418637,6661.853478,-76303.111601
2444.549372,-2220.617826,3701.029710,-74924.139704
2444.551925,6957.935855,6809.894666,-68488.937521
2444.554477,6809.894666,5181.441594,-70174.347617
2444.557030,-5773.606348,5477.523971,-77682.083497
2444.559582,-12583.501014,6661.853478,-78294.959896
2444.562134,-5773.606348,888.247130,-74617.701505
2444.564687,2960.823768,-1480.411884,-69867.909418
2444.567239,11103.089130,-7254.018232,-71400.100414
2444.569792,18653.189738,-10807.006753,-74464.482406
2444.572344,8586.388927,-4293.194464,-75843.454302
2444.574897,-5625.565159,-1628.453072,-74617.701505
2444.577449,-8882.471304,-6069.688724,-75230.577904
2444.580001,2220.617826,1184.329507,-69714.690318
2444.582561,12731.542202,2516.700203,-71246.881314
2444.585120,14211.954086,2368.659014,-74617.701505
2444.587679,2220.617826,-1924.535449,-76762.768900
2444.590239,592.164754,1036.288319,-74004.825107
2444.592798,-2220.617826,-8882.471304,-73238.729609
2444.595357,8734.430116,-5477.523971,-72625.853210
2444.597917,11547.212695,-6217.729913,-72779.072310
2444.600476,9918.759623,-6217.729913,-72779.072310
2444.603035,2960.823768,1776.494261,-72472.634111
2444.605595,-5181.441594,-4441.235652,-77069.207099
2444.608154,740.205942,740.205942,-75383.797003
2444.610713,8586.388927,-8734.430116,-72932.291410
2444.613273,14804.118840,-4885.359217,-69561.471218
2444.615832,1480.411884,1776.494261,-72472.634111
2444.618391,-7402.059420,740.205942,-79673.931792
2444.620951,-14508.036463,11251.130318,-74158.044206
2444.623510,-14063.912898,11103.089130,-71706.538613
2444.626069,-2220.617826,9178.553681,-72625.853210
2444.628629,5033.400406,1480.411884,-75077.358804
2444.631188,7698.141797,3552.988522,-71859.757712
2444.633747,-1332.370696,5033.400406,-72932.291410
2444.636307,-11251.130318,-1924.535449,-78601.398095
2444.638866,-11843.295072,-3404.947333,-74924.139704
2444.641426,888.247130,1628.453072,-70174.347617
2444.643985,3256.906145,11991.336260,-71706.538613
2444.646544,-6069.688724,3404.947333,-76762.768900
2444.649104,-5033.400406,4293.194464,-74158.044206
2444.651663,-12139.377449,11843.295072,-72166.195912
2444.654222,-9918.759623,6809.894666,-76303.111601
2444.656782,-2072.576638,2812.782580,-74770.920605
2444.659341,9326.594869,2368.659014,-69255.033019
2444.661900,3849.070898,9326.594869,-69101.813920
2444.664460,-13027.624579,3701.029710,-79827.150892
2444.667019,-10955.047942,10510.924376,-75843.454302
2444.669578,-2664.741391,-2220.617826,-71859.757712
2444.672138,8586.388927,-888.247130,-70480.785816
2444.674697,15248.242405,-11547.212695,-73238.729609
2444.677256,18949.272115,-8882.471304,-74311.263306
2444.679816,4441.235652,-4441.235652,-74004.825107
2444.682375,-7254.018232,-3701.029710,-76762.768900
2444.684939,-10510.924376,-2664.741391,-74464.482406
2444.687503,444.123565,444.123565,-70787.224015
2444.690067,15988.448347,3404.947333,-70940.443115
2444.692631,13323.706956,-1776.494261,-76149.892501
2444.695195,-444.123565,-148.041188,-76149.892501
2444.697759,-1480.411884,-296.082377,-74924.139704
2444.700323,-3701.029710,-7846.182985,-74617.701505
2444.702888,6513.812290,-4441.235652,-72472.634111
2444.705452,11991.336260,-4293.194464,-71553.319513
2444.708016,9622.677246,-6513.812290,-72932.291410
2444.710580,1776.494261,-2368.659014,-73391.948708
2444.713144,-5181.441594,-2072.576638,-77375.645298
2444.715708,-592.164754,-592.164754,-75077.358804
2444.718272,11843.295072,-10807.006753,-71859.757712
2444.720836,11695.253884,-3849.070898,-68948.594820
2444.723400,888.247130,6957.935855,-72625.853210
2444.725964,-9030.512492,2812.782580,-80286.808190
2444.728528,-15544.324782,10066.800811,-75843.454302
2444.731092,-12583.501014,13915.871710,-70634.004916
2444.733657,-148.041188,8734.430116,-71706.538613
2444.736221,7846.182985,-888.247130,-73851.606007
2444.738785,7254.018232,3849.070898,-71400.100414
2444.741349,-3404.947333,2664.741391,-75383.797003
2444.743913,-12139.377449,-444.123565,-77988.521696
2444.746477,-6365.771101,-740.205942,-73238.729609
2444.749041,2960.823768,7402.059420,-68642.156621
2444.751605,1776.494261,3849.070898,-72779.072310
2444.754169,-1036.288319,1332.370696,-77682.083497
2444.756733,-8882.471304,9030.512492,-72932.291410
2444.759297,-13175.665768,11547.212695,-72932.291410
2444.761861,-3701.029710,8586.388927,-76303.111601
2444.764426,888.247130,-1776.494261,-72779.072310
2444.766990,8734.430116,4441.235652,-67569.622924
2444.769554,-4145.153275,6217.729913,-73085.510509
2444.772118,-13323.706956,8734.430116,-79827.150892
2444.774682,-10807.006753,5773.606348,-75843.454302
2444.777246,1628.453072,444.123565,-70174.347617
2444.779810,8586.388927,-3997.112087,-70174.347617
2444.782374,18949.272115,-13767.830521,-74158.044206
2444.784938,15396.283594,-8882.471304,-74004.825107
2444.787506,-4885.359217,-4293.194464,-75843.454302
2444.790074,-9918.759623,-2220.617826,-76762.768900
2444.792642,-5773.606348,-2516.700203,-72166.195912
2444.795210,9474.636058,3404.947333,-68029.280222
2444.797778,19541.436869,2220.617826,-71400.100414
2444.800346,5625.565159,740.205942,-77375.645298
2444.802914,3701.029710,-2664.741391,-77375.645298
2444.805482,-3108.864956,-888.247130,-73085.510509
2444.808050,3256.906145,-7550.100608,-73085.510509
2444.810618,12287.418637,-5181.441594,-71246.881314
2444.813186,13619.789333,-9474.636058,-72625.853210
2444.815754,7698.141797,592.164754,-70787.224015
2444.818322,-4145.153275,-1184.329507,-76149.892501
2444.820890,-2812.782580,-2812.782580,-78907.836294
2444.823458,4589.276840,-5921.647536,-72166.195912
2444.826026,13027.624579,-6069.688724,-68182.499322
2444.828594,3849.070898,740.205942,-70021.128517
2444.831162,-2664.741391,888.247130,-77988.521696
2444.833730,-12435.459826,14211.954086,-75537.016103
2444.836298,-16432.571912,10214.842000,-73851.606007
2444.838866,-4589.276840,11991.336260,-71400.100414
2444.841434,2812.782580,1628.453072,-73851.606007
2444.844002,8438.347739,2368.659014,-72012.976812
2444.846570,1628.453072,4885.359217,-73238.729609
2444.849138,-7402.059420,-592.164754,-79367.493593
2444.851706,-10510.924376,-296.082377,-75230.577904
2444.854274,-444.123565,6069.688724,-70174.347617
2444.856842,3701.029710,2960.823768,-70940.443115
2444.859410,-592.164754,5181.441594,-73851.606007
2444.861978,-6957.935855,5921.647536,-75383.797003
2444.864546,-11103.089130,10807.006753,-74004.825107
2444.867114,-7254.018232,11251.130318,-75230.577904
2444.869682,2072.576638,1036.288319,-74924.139704
2444.872250,6957.935855,1776.494261,-68948.594820
2444.874818,1332.370696,4885.359217,-70021.128517
2444.877386,-9178.553681,9770.718434,-77222.426198
2444.879954,-11695.253884,9030.512492,-79520.712692
2444.882522,-592.164754,-444.123565,-71246.881314
2444.885090,11991.336260,-2664.741391,-68948.594820
2444.887658,17468.860231,-16580.613101,-73391.948708
2444.890229,16432.571912,-10066.800811,-74158.044206
2444.892799,-148.041188,-1628.453072,-73851.606007
2444.895370,-8586.388927,-888.247130,-78294.959896
2444.897940,-9474.636058,-3849.070898,-76456.330700
2444.900510,2960.823768,2516.700203,-67569.622924
2444.903081,15396.283594,4737.318029,-66956.746525
2444.905651,8882.471304,-2664.741391,-78294.959896
2444.908222,-2516.700203,2368.659014,-76915.987999
2444.910792,-1332.370696,-7994.224174,-74770.920605
2444.913363,3108.864956,-1924.535449,-71246.881314
2444.915933,5477.523971,-10807.006753,-73085.510509
2444.918504,15692.365970,-5625.565159,-70174.347617
2444.921074,5773.606348,-3108.864956,-71859.757712
2444.923645,1184.329507,-444.123565,-76762.768900
2444.926215,-2960.823768,1332.370696,-77988.521696
2444.928786,6365.771101,-8290.306550,-74158.044206
2444.931356,9474.636058,-4441.235652,-66650.308326
2444.933927,1776.494261,-4293.194464,-73545.167808
2444.936497,-4293.194464,6217.729913,-76762.768900
2444.939068,-11547.212695,13619.789333,-76149.892501
2444.941638,-13767.830521,17172.777854,-73545.167808
2444.944209,-6217.729913,4737.318029,-74464.482406
2444.946779,6365.771101,2960.823768,-71093.662214
2444.949350,6365.771101,2368.659014,-70174.347617
2444.951920,-740.205942,2220.617826,-75537.016103
2444.954491,-8586.388927,-888.247130,-79367.493593
2444.957061,-8142.265362,3108.864956,-73545.167808
2444.959632,888.247130,4885.359217,-70021.128517
2444.962202,2664.741391,592.164754,-72319.415011
2444.964773,-592.164754,4885.359217,-73698.386908
2444.967343,-9030.512492,7698.141797,-74158.044206
2444.969914,-14952.160028,14656.077652,-74770.920605
2444.972484,-8142.265362,5181.441594,-78294.959896
2444.975055,1332.370696,4441.235652,-72932.291410
2444.977625,2812.782580,-148.041188,-68488.937521
2444.980196,-2220.617826,7105.977043,-72166.195912
2444.982766,-13323.706956,8290.306550,-79061.055394
2444.985336,-6365.771101,6217.729913,-78448.178995
2444.987907,-444.123565,444.123565,-71553.319513
2444.990477,10807.006753,-5625.565159,-69714.690318
2444.993050,20281.642811,-17912.983796,-72779.072310
2444.995623,16136.489536,-7846.182985,-72779.072310
2444.998195,-4589.276840,296.082377,-74617.701505
2445.000768,-8882.471304,-2960.823768,-78754.617194
2445.003340,-5625.565159,-444.123565,-70940.443115
2445.005913,8438.347739,1184.329507,-67416.403824
2445.008486,13175.665768,1036.288319,-72166.195912
2445.011058,7402.059420,6069.688724,-77069.207099
2445.013631,-5773.606348,-3997.112087,-78294.959896
2445.016203,4589.276840,-9474.636058,-74924.139704
2445.018776,5625.565159,-2220.617826,-71400.100414
2445.021348,11843.295072,-14508.036463,-72166.195912
2445.023921,9918.759623,-1184.329507,-67722.842023
2445.026494,2368.659014,-5921.647536,-74617.701505
2445.029066,-3256.906145,-592.164754,-81818.999186
2445.031639,1776.494261,-4441.235652,-75996.673402
2445.034211,13323.706956,-4441.235652,-66497.089226
2445.036784,3701.029710,-2368.659014,-67569.622924
2445.039356,-1184.329507,-3849.070898,-78601.398095
2445.041929,-10362.883188,11991.336260,-76762.768900
2445.044502,-14508.036463,19097.313304,-73851.606007
2445.047074,-9178.553681,14952.160028,-73698.386908
2445.049647,1628.453072,-4145.153275,-74311.263306
2445.052219,7550.100608,5329.482782,-66803.527426
2445.054792,2960.823768,3701.029710,-72012.976812
2445.057365,-6957.935855,-444.123565,-80899.684589
2445.059937,-10807.006753,444.123565,-77682.083497
2445.062510,-1332.370696,8290.306550,-68642.156621
2445.065082,444.123565,-2516.700203,-69867.909418
2445.067655,-888.247130,1036.288319,-73545.167808
2445.070227,-7105.977043,7846.182985,-72779.072310
2445.072800,-12435.459826,14063.912898,-74617.701505
2445.075373,-4885.359217,11399.171507,-78754.617194
2445.077945,148.041188,-1184.329507,-73391.948708
2445.080518,5329.482782,1924.535449,-66343.870127
2445.083090,-3849.070898,6513.812290,-70327.566716
2445.085663,-11251.130318,6957.935855,-79520.712692
2445.088236,-4441.235652,5921.647536,-78754.617194
2445.090808,1776.494261,3701.029710,-71246.881314
2445.093381,7994.224174,-4589.276840,-70174.347617
2445.095955,17320.819043,-21910.095883,-73851.606007
2445.098530,15396.283594,-11843.295072,-70634.004916
2445.101104,-4441.235652,-592.164754,-75537.016103
2445.103679,-8882.471304,444.123565,-80286.808190
2445.106253,-4145.153275,-740.205942,-74464.482406
2445.108828,5181.441594,4441.235652,-65730.993728
2445.111402,14508.036463,-888.247130,-70021.128517
2445.113977,8586.388927,-4293.194464,-76456.330700
2445.116551,-1628.453072,3108.864956,-75230.577904
2445.119126,-444.123565,592.164754,-76149.892501
2445.121701,5625.565159,-5625.565159,-75843.454302
2445.124275,14211.954086,-13619.789333,-71706.538613
2445.126850,10510.924376,-3404.947333,-67569.622924
2445.129424,3701.029710,-2220.617826,-72779.072310
2445.131999,-2664.741391,3997.112087,-79214.274493
2445.134573,3108.864956,-7846.182985,-80133.589091
2445.137148,9474.636058,-740.205942,-68335.718422
2445.139722,888.247130,-6513.812290,-67876.061123
2445.142297,-1776.494261,444.123565,-73238.729609
2445.144871,-8882.471304,5329.482782,-77835.302597
2445.147446,-12287.418637,22946.384202,-73698.386908
2445.150020,-8290.306550,10807.006753,-75996.673402
2445.152595,2664.741391,592.164754,-73238.729609
2445.155169,6217.729913,1332.370696,-66803.527426
2445.157744,-740.205942,148.041188,-72166.195912
2445.160318,-4589.276840,-1776.494261,-80593.246390
2445.162893,-9918.759623,6365.771101,-77682.083497
2445.165467,-2812.782580,2220.617826,-72319.415011
2445.168042,5477.523971,4145.153275,-68488.937521
2445.170617,0.000000,148.041188,-72319.415011
2445.173191,-8142.265362,4885.359217,-74464.482406
2445.175766,-13471.748144,19837.519246,-74770.920605
2445.178341,-8438.347739,3849.070898,-80899.684589
2445.180916,5033.400406,8290.306550,-72166.195912
2445.183491,3701.029710,-740.205942,-66497.089226
2445.186067,-1924.535449,3256.906145,-69255.033019
2445.188642,-10658.965565,5181.441594,-78448.178995
2445.191217,-1332.370696,7994.224174,-79827.150892
2445.193792,-1036.288319,7994.224174,-72166.195912
2445.196368,8734.430116,-9474.636058,-72319.415011
2445.198943,18357.107362,-17764.942608,-71706.538613
2445.201518,11251.130318,-13767.830521,-71093.662214
2445.204093,-296.082377,4737.318029,-72932.291410
2445.206669,-9474.636058,-2812.782580,-81972.218286
2445.209244,-4145.153275,4589.276840,-75690.235202
2445.211819,4737.318029,1036.288319,-66343.870127
2445.214394,18061.024985,0.000000,-67263.184724
2445.216970,2368.659014,-3404.947333,-74770.920605
2445.219545,1184.329507,296.082377,-78601.398095
2445.222120,1628.453072,-148.041188,-75843.454302
2445.224695,5773.606348,-6661.853478,-74158.044206
2445.227271,10362.883188,-9918.759623,-69867.909418
2445.229846,5033.400406,-13619.789333,-68795.375720
2445.232421,1184.329507,2516.700203,-70787.224015
2445.234996,-592.164754,1924.535449,-80440.027290
2445.237572,9326.594869,-3849.070898,-79827.150892
2445.240147,9326.594869,-6513.812290,-69255.033019
2445.242722,-740.205942,1924.535449,-66037.431928
2445.245297,-7402.059420,-5033.400406,-78141.740796
2445.247873,-10510.924376,17468.860231,-74464.482406
2445.250448,-13323.706956,23982.672521,-74311.263306
2445.253023,-888.247130,10066.800811,-76915.987999
2445.255598,6069.688724,-1776.494261,-72472.634111
2445.258174,5329.482782,-3552.988522,-66650.308326
2445.260749,148.041188,1332.370696,-72012.976812
2445.263324,-7402.059420,-1036.288319,-82738.313784
2445.265899,-10955.047942,4885.359217,-78601.398095
2445.268475,444.123565,5625.565159,-70480.785816
2445.271050,6365.771101,3256.906145,-68335.718422
2445.273625,-3701.029710,-1036.288319,-71246.881314
2445.276200,-8882.471304,10658.965565,-74464.482406
2445.278776,-12879.583391,14804.118840,-78601.398095
2445.281351,-5625.565159,8438.347739,-79520.712692
2445.283927,444.123565,2368.659014,-70634.004916
2445.286503,296.082377,-1184.329507,-64811.679131
2445.289079,-4885.359217,7846.182985,-70174.347617
2445.291654,-4589.276840,2220.617826,-80593.246390
2445.294230,2220.617826,7846.182985,-75537.016103
2445.296806,4441.235652,3108.864956,-70174.347617
2445.299382,13323.706956,-21021.848753,-74770.920605
2445.301957,10658.965565,-18801.230927,-70634.004916
2445.304533,6069.688724,-5181.441594,-69101.813920
2445.307109,-2220.617826,4589.276840,-76762.768900
2445.309685,-3256.906145,888.247130,-82431.875585
2445.312260,4441.235652,4441.235652,-71553.319513
2445.314836,10066.800811,740.205942,-65118.117330
2445.317412,5625.565159,-3701.029710,-71859.757712
2445.319988,-1480.411884,-3997.112087,-77682.083497
2445.322563,0.000000,5033.400406,-74770.920605
2445.325139,7105.977043,148.041188,-76456.330700
2445.327715,11103.089130,-13619.789333,-74311.263306
2445.330291,10214.842000,-14063.912898,-66650.308326
2445.332867,1184.329507,-5329.482782,-68335.718422
2445.335442,-3108.864956,4737.318029,-77988.521696
2445.338018,3108.864956,-5625.565159,-84117.285680
2445.340594,10955.047942,1924.535449,-70174.347617
2445.343170,-740.205942,148.041188,-67569.622924
2445.345745,-4441.235652,-8142.265362,-74924.139704
2445.348321,-10807.006753,9030.512492,-73545.167808
2445.350897,-13915.871710,23538.548956,-73545.167808
2445.353473,-8734.430116,16284.530724,-78601.398095
2445.356048,1924.535449,-888.247130,-77528.864398
2445.358624,7994.224174,740.205942,-65118.117330
2445.361200,3701.029710,0.000000,-67416.403824
2445.363776,-2812.782580,-4293.194464,-80593.246390
2445.366351,-8438.347739,5625.565159,-78601.398095
2445.368927,-1776.494261,16432.571912,-70327.566716
2445.371503,-592.164754,-6365.771101,-72779.072310
2445.374079,296.082377,-2516.700203,-70021.128517
2445.376654,-7846.182985,7994.224174,-68642.156621
2445.379230,-7402.059420,21910.095883,-74464.482406
2445.381806,-6217.729913,6957.935855,-85189.819378
2445.384348,2960.823768,0.000000,-76149.892501
2445.386890,-1332.370696,7994.224174,-62206.954438
2445.389433,-7994.224174,-740.205942,-72625.853210
2445.391975,-2072.576638,2664.741391,-78294.959896
2445.394517,2812.782580,2516.700203,-75996.673402
2445.397059,7846.182985,10658.965565,-71706.538613
2445.399602,11843.295072,-19097.313304,-77835.302597
2445.402144,13915.871710,-18505.148550,-69867.909418
2445.404686,2368.659014,-9030.512492,-66343.870127
2445.407228,-5181.441594,1332.370696,-76149.892501
2445.409770,-6957.935855,-148.041188,-84117.285680
2445.412313,1184.329507,7698.141797,-72012.976812
2445.414855,15396.283594,2220.617826,-66343.870127
2445.417397,-148.041188,-8882.471304,-74770.920605
2445.419939,0.000000,-3256.906145,-75077.358804
2445.422482,2072.576638,9030.512492,-74770.920605
2445.425024,6513.812290,-6069.688724,-79367.493593
2445.427566,13323.706956,-9770.718434,-72166.195912
2445.430108,8882.471304,-14804.118840,-66037.431928
2445.432651,1628.453072,-2516.700203,-69101.813920
2445.435193,-1036.288319,-4293.194464,-80133.589091
2445.437735,7402.059420,148.041188,-80286.808190
2445.440277,5773.606348,2812.782580,-69561.471218
2445.442819,296.082377,-592.164754,-72012.976812
2445.445362,-5329.482782,-6069.688724,-74311.263306
2445.447904,-10214.842000,16728.654289,-69714.690318
2445.450446,-13767.830521,22058.137072,-74617.701505
2445.452988,-4589.276840,10214.842000,-82125.437386
2445.455531,3404.947333,888.247130,-73391.948708
2445.458073,4441.235652,148.041188,-64658.460031
2445.460615,-888.247130,-4293.194464,-71400.100414
2445.463157,-7254.018232,-3404.947333,-80593.246390
2445.465699,-3701.029710,14656.077652,-74617.701505
2445.468242,-444.123565,8438.347739,-74158.044206
2445.470784,1776.494261,-5181.441594,-74158.044206
2445.473326,-7402.059420,1628.453072,-67876.061123
2445.475868,-7105.977043,12879.583391,-70021.128517
2445.478411,-9030.512492,15396.283594,-78294.959896
2445.480953,-1184.329507,2368.659014,-82431.875585
2445.483495,3849.070898,9918.759623,-68948.594820
2445.486044,-9030.512492,4293.194464,-67109.965625
2445.488593,-6069.688724,-1480.411884,-75537.016103
2445.491142,1332.370696,740.205942,-74770.920605
2445.493691,6957.935855,8290.306550,-73391.948708
2445.496240,10807.006753,-3849.070898,-75537.016103
2445.498789,14656.077652,-24278.754898,-76149.892501
2445.501339,9474.636058,-10510.924376,-66956.746525
2445.503888,-3404.947333,-3997.112087,-69714.690318
2445.506437,-5033.400406,-444.123565,-81206.122788
2445.508986,-4145.153275,7698.141797,-75690.235202
2445.511535,9326.594869,5625.565159,-68335.718422
2445.514085,11251.130318,-1628.453072,-70174.347617
2445.516634,740.205942,-12287.418637,-75537.016103
2445.519183,2220.617826,1628.453072,-74158.044206
2445.521732,3108.864956,3997.112087,-75230.577904
2445.524281,7846.182985,-8586.388927,-78294.959896
2445.526831,8882.471304,-11399.171507,-70940.443115
2445.529380,6661.853478,-7254.018232,-65884.212828
2445.531929,592.164754,-888.247130,-72625.853210
2445.534478,2812.782580,-7402.059420,-81665.780087
2445.537027,7402.059420,4145.153275,-73238.729609
2445.539576,-3256.906145,5181.441594,-70021.128517
2445.542126,-5181.441594,-3701.029710,-75537.016103
2445.544675,-7254.018232,4589.276840,-71859.757712
2445.547224,-9474.636058,20133.601622,-68335.718422
2445.549773,-7698.141797,15100.201217,-77375.645298
2445.552322,2072.576638,3849.070898,-81052.903688
2445.554872,6513.812290,3404.947333,-69101.813920
2445.557421,-148.041188,-2072.576638,-68795.375720
2445.559970,-8290.306550,-8438.347739,-78448.178995
2445.562519,-5181.441594,1776.494261,-76303.111601
2445.565068,1628.453072,22206.178260,-70787.224015
2445.567618,-296.082377,-1924.535449,-77222.426198
2445.570167,0.000000,-5477.523971,-74311.263306
2445.572716,-8586.388927,10066.800811,-66497.089226
2445.575265,-9918.759623,15988.448347,-72472.634111
2445.577814,-7105.977043,6513.812290,-82738.313784
2445.580363,-148.041188,2368.659014,-76915.987999
2445.582913,-888.247130,11103.089130,-66650.308326
2445.585462,-6365.771101,-296.082377,-74004.825107
2445.588017,1036.288319,-5329.482782,-77528.864398
2445.590572,1332.370696,5181.441594,-71400.100414
2445.593127,6365.771101,2368.659014,-74158.044206
2445.595682,11103.089130,-18653.189738,-79520.712692
2445.598237,12435.459826,-14063.912898,-70480.785816
2445.600793,1036.288319,-4885.359217,-65271.336430
2445.603348,-2220.617826,-1628.453072,-76609.549800
2445.605903,-740.205942,3404.947333,-79061.055394
2445.608458,8290.306550,7550.100608,-70787.224015
2445.611013,9770.718434,-592.164754,-69101.813920
2445.613568,-296.082377,-5773.606348,-75230.577904
2445.616123,-148.041188,-8142.265362,-75383.797003
2445.618678,8142.265362,8882.471304,-71706.538613
2445.621233,6365.771101,-6217.729913,-76762.768900
2445.623788,13915.871710,-13175.665768,-74924.139704
2445.626344,7254.018232,-7994.224174,-68795.375720
2445.628899,-740.205942,-4293.194464,-74004.825107
2445.631454,2220.617826,-8438.347739,-79980.369991
2445.634009,9474.636058,-592.164754,-75077.358804
2445.636564,888.247130,10658.965565,-68488.937521
2445.639119,-1036.288319,-2812.782580,-75843.454302
2445.641674,-6957.935855,3404.947333,-74924.139704
2445.644229,-9622.677246,16432.571912,-69408.252119
2445.646784,-9918.759623,20577.725188,-73851.606007
2445.649340,-1480.411884,-148.041188,-81052.903688
2445.651895,3701.029710,5181.441594,-68335.718422
2445.654450,1036.288319,-1776.494261,-68795.375720
2445.657005,-3849.070898,-4885.359217,-77222.426198
2445.659560,-10214.842000,-148.041188,-78754.617194
2445.662115,-2812.782580,7698.141797,-72625.853210
2445.664670,1628.453072,11843.295072,-71093.662214
2445.667225,-7254.018232,-3701.029710,-75690.235202
2445.669780,-6513.812290,8142.265362,-69714.690318
2445.672336,-10510.924376,12287.418637,-72932.291410
2445.674891,-1036.288319,7698.141797,-79214.274493
2445.677446,444.123565,9178.553681,-71859.757712
2445.680001,-5625.565159,9030.512492,-67722.842023
2445.682556,-8290.306550,1628.453072,-74464.482406
2445.685111,-1332.370696,-7846.182985,-79061.055394
2445.687666,6661.853478,8734.430116,-70174.347617
2445.690225,8438.347739,-148.041188,-72472.634111
2445.692784,15840.407159,-20429.683999,-79367.493593
2445.695344,9030.512492,-15692.365970,-72625.853210
2445.697903,2960.823768,-3108.864956,-67722.842023
2445.700462,-6365.771101,1924.535449,-77528.864398
2445.703021,-592.164754,888.247130,-79980.369991
2445.705580,8290.306550,5921.647536,-69561.471218
2445.708139,11251.130318,3256.906145,-68488.937521
2445.710698,3701.029710,-7254.018232,-75537.016103
2445.713257,1480.411884,-4885.359217,-76149.892501
2445.715816,4885.359217,2368.659014,-72779.072310
2445.718375,6365.771101,-5033.400406,-75996.673402
2445.720935,6809.894666,-15692.365970,-76149.892501
2445.723494,6217.729913,-4441.235652,-66650.308326
2445.726053,3552.988522,592.164754,-73238.729609
2445.728612,6809.894666,-13175.665768,-82278.656485
2445.731171,5921.647536,1924.535449,-72932.291410
2445.733730,-4589.276840,7254.018232,-69561.471218
2445.736289,-7105.977043,0.000000,-75230.577904
2445.738848,-11103.089130,4885.359217,-74770.920605
2445.741407,-9770.718434,21910.095883,-68335.718422
2445.743967,-3552.988522,13471.748144,-74770.920605
2445.746526,3701.029710,3404.947333,-79673.931792
2445.749085,1924.535449,1036.288319,-68642.156621
2445.751644,-2516.700203,444.123565,-68795.375720
2445.754203,-8438.347739,-5477.523971,-78601.398095
2445.756762,-8586.388927,-3849.070898,-79061.055394
2445.759321,3997.112087,19837.519246,-68948.594820
2445.761880,-2072.576638,5921.647536,-72166.195912
2445.764439,-1924.535449,-3997.112087,-75383.797003
2445.766998,-7846.182985,10214.842000,-70634.004916
2445.769558,-9030.512492,11843.295072,-74770.920605
2445.772117,-1332.370696,7105.977043,-77988.521696
2445.774676,-2960.823768,8438.347739,-71246.881314
2445.777235,-4145.153275,5329.482782,-68948.594820
2445.779794,-444.123565,592.164754,-74004.825107
2445.782353,4145.153275,-5329.482782,-77528.864398
2445.784912,5477.523971,5329.482782,-70327.566716
2445.787471,9770.718434,-9918.759623,-75843.454302
2445.790030,9178.553681,-17024.736666,-77375.645298
2445.792593,3256.906145,-13767.830521,-71400.100414
2445.795156,1480.411884,3701.029710,-69408.252119
2445.797719,-2072.576638,1480.411884,-79061.055394
2445.800282,-444.123565,1776.494261,-77069.207099
2445.802844,10510.924376,3997.112087,-68642.156621
2445.805407,2516.700203,2960.823768,-69561.471218
2445.807970,-3404.947333,-12583.501014,-78294.959896
2445.810533,148.041188,296.082377,-75383.797003
2445.813095,6957.935855,2072.576638,-72779.072310
2445.815658,12435.459826,-5625.565159,-73851.606007
2445.818221,10066.800811,-15544.324782,-74158.044206
2445.820784,2664.741391,-2368.659014,-69714.690318
2445.823347,3404.947333,-10066.800811,-76149.892501
2445.825909,5773.606348,-3997.112087,-78754.617194
2445.828472,-1628.453072,3849.070898,-72319.415011
2445.831035,-1184.329507,7402.059420,-70787.224015
2445.833598,-7994.224174,7550.100608,-75077.358804
2445.836160,-10510.924376,16136.489536,-72472.634111
2445.838723,-7846.182985,16284.530724,-71859.757712
2445.841286,444.123565,6217.729913,-76915.987999
2445.843849,1036.288319,-2072.576638,-74924.139704
2445.846412,1924.535449,0.000000,-69714.690318
2445.848974,-5033.400406,-2960.823768,-75996.673402
2445.851537,-7105.977043,592.164754,-77069.207099
2445.854100,-2072.576638,6809.894666,-73698.386908
2445.856663,1036.288319,6661.853478,-71246.881314
2445.859226,-6365.771101,592.164754,-72932.291410
2445.861788,-9030.512492,6365.771101,-72779.072310
2445.864351,-9770.718434,13471.748144,-72625.853210
2445.866914,-1480.411884,5625.565159,-78141.740796
2445.869477,-1924.535449,8290.306550,-72779.072310
2445.872039,-7698.141797,5181.441594,-70940.443115
2445.874602,-888.247130,2516.700203,-72779.072310
2445.877165,3404.947333,-4441.235652,-75077.358804
2445.879728,6513.812290,4293.194464,-72472.634111
2445.882291,10362.883188,-11843.295072,-75690.235202
2445.884853,13175.665768,-16432.571912,-75077.358804
2445.887416,6217.729913,-12139.377449,-70634.004916
2445.889979,-1332.370696,-740.205942,-70940.443115
2445.892542,-3256.906145,2516.700203,-77528.864398
2445.895107,5625.565159,2072.576638,-75077.358804
2445.897673,12435.459826,7402.059420,-68948.594820
2445.900239,5625.565159,-5329.482782,-72625.853210
2445.902805,-1924.535449,-9770.718434,-76456.330700
2445.905370,2220.617826,1924.535449,-75843.454302
2445.907936,3997.112087,2220.617826,-73085.510509
2445.910502,9178.553681,-11843.295072,-73545.167808
2445.913068,7846.182985,-9474.636058,-70787.224015
2445.915634,2516.700203,-5329.482782,-72319.415011
2445.918199,5773.606348,-9918.759623,-77222.426198
2445.920765,5329.482782,-3108.864956,-76609.549800
2445.923331,-3849.070898,8882.471304,-70327.566716
2445.925897,-7698.141797,1924.535449,-74464.482406
2445.928462,-7550.100608,5625.565159,-73851.606007
2445.931028,-9770.718434,19097.313304,-70480.785816
2445.933594,-4441.235652,16432.571912,-73698.386908
2445.936160,148.041188,5181.441594,-77375.645298
2445.938725,2664.741391,-1776.494261,-73238.729609
2445.941291,-1628.453072,1776.494261,-70174.347617
2445.943857,-6957.935855,-5625.565159,-77528.864398
2445.946423,-5773.606348,888.247130,-77528.864398
2445.948988,2220.617826,13027.624579,-71093.662214
2445.951554,148.041188,6513.812290,-72166.195912
2445.954120,-3404.947333,-3108.864956,-74464.482406
2445.956686,-7550.100608,11695.253884,-71093.662214
2445.959252,-8734.430116,10658.965565,-75383.797003
2445.961817,-3997.112087,9030.512492,-78448.178995
2445.964383,-3997.112087,3256.906145,-74617.701505
2445.966949,-3108.864956,10658.965565,-68642.156621
2445.969515,1628.453072,-2812.782580,-75690.235202
2445.972080,4737.318029,-6661.853478,-76303.111601
2445.974646,5477.523971,6069.688724,-70480.785816
2445.977212,10066.800811,-11399.171507,-76609.549800
2445.979778,7550.100608,-18061.024985,-76609.549800
2445.982343,4145.153275,-14063.912898,-69408.252119
2445.984909,296.082377,5773.606348,-68642.156621
2445.987475,-1036.288319,740.205942,-78754.617194
2445.990041,5773.606348,1924.535449,-75690.235202
2445.992606,4145.153275,7254.018232,-66803.527426
2445.995172,-740.205942,-9770.718434,-73391.948708
2445.997740,1184.329507,-1184.329507,-74770.920605
2446.000308,1184.329507,3404.947333,-73391.948708
2446.002875,12139.377449,-1036.288319,-73391.948708
2446.005443,9030.512492,-15692.365970,-75537.016103
2446.008011,10510.924376,-11547.212695,-71553.319513
2446.010579,2516.700203,3404.947333,-68029.280222
2446.013146,4589.276840,-14063.912898,-75383.797003
2446.015714,3108.864956,-2220.617826,-77222.426198
2446.018282,-4293.194464,6513.812290,-71400.100414
2446.020850,-2812.782580,7105.977043,-72625.853210
2446.023417,-9474.636058,8882.471304,-74004.825107
2446.025985,-8142.265362,15544.324782,-72472.634111
2446.028553,-6069.688724,13767.830521,-73391.948708
2446.031120,296.082377,3404.947333,-78141.740796
2446.033688,592.164754,-4441.235652,-72472.634111
2446.036256,-3404.947333,3108.864956,-68642.156621
2446.038824,-6957.935855,-1036.288319,-76915.987999
2446.041391,-1332.370696,-3404.947333,-78754.617194
2446.043959,-1480.411884,15100.201217,-69101.813920
2446.046527,-4441.235652,1776.494261,-73238.729609
2446.049095,-5773.606348,3108.864956,-74158.044206
2446.051662,-12287.418637,5477.523971,-73851.606007
2446.054230,-3997.112087,16136.489536,-71859.757712
2446.056798,-1480.411884,5625.565159,-76149.892501
2446.059366,-1924.535449,8142.265362,-73545.167808
2446.061933,-5773.606348,9326.594869,-70021.128517
2446.064501,2960.823768,-5033.400406,-75383.797003
2446.067069,1184.329507,740.205942,-74311.263306
2446.069636,8290.306550,-6661.853478,-74158.044206
2446.072204,12731.542202,-13767.830521,-73391.948708
2446.074772,11695.253884,-15988.448347,-73085.510509
2446.077340,2368.659014,-5625.565159,-71246.881314
2446.079907,-1776.494261,4589.276840,-74158.044206
2446.082475,-3256.906145,3256.906145,-77528.864398
2446.085043,6365.771101,-1036.288319,-72472.634111
2446.087611,5477.523971,1776.494261,-69101.813920
2446.090178,6069.688724,-7254.018232,-74617.701505
2446.092746,2812.782580,-444.123565,-76149.892501
2446.095314,5921.647536,444.123565,-73851.606007
2446.097882,10510.924376,-5625.565159,-72625.853210
2446.100418,6661.853478,-13767.830521,-73545.167808
2446.102955,4293.194464,-7254.018232,-71553.319513
2446.105492,2516.700203,-4589.276840,-73238.729609
2446.108028,8438.347739,-6957.935855,-76762.768900
2446.110565,-592.164754,6809.894666,-72625.853210
2446.113102,-5181.441594,740.205942,-75230.577904
2446.115638,-7105.977043,9474.636058,-72932.291410
2446.118175,-12139.377449,14952.160028,-71246.881314
2446.120712,-6957.935855,18357.107362,-73698.386908
2446.123248,-2516.700203,6365.771101,-77222.426198
2446.125785,3256.906145,-3701.029710,-72625.853210
2446.128322,1924.535449,444.123565,-68795.375720
2446.130858,-4145.153275,-444.123565,-74311.263306
2446.133395,-6365.771101,1776.494261,-75537.016103
2446.135932,-1332.370696,9030.512492,-72166.195912
2446.138468,-3108.864956,5329.482782,-73698.386908
2446.141005,-4589.276840,-740.205942,-74004.825107
2446.143542,-7846.182985,10955.047942,-70634.004916
2446.146079,-6365.771101,13175.665768,-75230.577904
2446.148615,-2960.823768,8438.347739,-77682.083497
2446.151152,-6957.935855,5329.482782,-73391.948708
2446.153689,-6809.894666,10658.965565,-68642.156621
2446.156225,-1036.288319,-2664.741391,-74924.139704
2446.158762,6513.812290,-3997.112087,-74617.701505
2446.161299,9030.512492,1036.288319,-72472.634111
2446.163835,12139.377449,-14359.995275,-75996.673402
2446.166372,8290.306550,-16876.695478,-74924.139704
2446.168909,444.123565,-12139.377449,-71400.100414
2446.171445,-1776.494261,5921.647536,-71400.100414
2446.173982,-1628.453072,2960.823768,-79061.055394
2446.176519,3108.864956,-2072.576638,-75996.673402
2446.179055,9326.594869,8142.265362,-66803.527426
2446.181592,148.041188,-6217.729913,-73698.386908
2446.184129,4737.318029,-8586.388927,-79673.931792
2446.186665,5181.441594,5625.565159,-73085.510509
2446.189202,8290.306550,-7402.059420,-72166.195912
2446.191739,9326.594869,-7698.141797,-72625.853210
2446.194275,2368.659014,-13175.665768,-74158.044206
2446.196812,10658.965565,-5625.565159,-72472.634111
2446.199349,7994.224174,-4885.359217,-76149.892501
2446.201893,1628.453072,1332.370696,-76149.892501
2446.204437,-5477.523971,7698.141797,-72319.415011
2446.206982,-9178.553681,5329.482782,-73085.510509
2446.209526,-9030.512492,16876.695478,-71400.100414
2446.212070,-6217.729913,14063.912898,-73851.606007
2446.214615,2368.659014,10955.047942,-74924.139704
2446.217159,2664.741391,-2664.741391,-74004.825107
2446.219703,0.000000,-1628.453072,-70940.443115
2446.222248,-6365.771101,444.123565,-74158.044206
2446.224792,-8142.265362,-3108.864956,-77222.426198
