#time,accel_x,accel_y,accel_z
2754.334958,592.164754,2072.576638,-73698.386908
2754.337525,592.164754,1036.288319,-73698.386908
2754.340092,1776.494261,1332.370696,-73238.729609
2754.342658,444.123565,444.123565,-73545.167808
2754.345225,296.082377,-148.041188,-74004.825107
2754.347792,296.082377,592.164754,-73238.729609
2754.350359,-444.123565,-296.082377,-73698.386908
2754.352925,-592.164754,1184.329507,-73851.606007
2754.355492,0.000000,1776.494261,-73238.729609
2754.358059,1480.411884,888.247130,-73391.948708
2754.360625,888.247130,444.123565,-74311.263306
2754.363192,444.123565,-296.082377,-74004.825107
2754.365759,0.000000,-2664.741391,-73851.606007
2754.368325,2960.823768,2664.741391,-72625.853210
2754.370892,1036.288319,-296.082377,-74311.263306
2754.373459,-888.247130,1184.329507,-74158.044206
2754.376026,3256.906145,1184.329507,-73698.386908
2754.378592,8142.265362,5033.400406,-73545.167808
2754.381159,10658.965565,3256.906145,-74004.825107
2754.383726,8290.306550,11843.295072,-72472.634111
2754.386292,4441.235652,9622.677246,-74924.139704
2754.388859,-1628.453072,13175.665768,-74617.701505
2754.391426,-1480.411884,7105.977043,-73851.606007
2754.393993,-3997.112087,-3997.112087,-71246.881314
2754.396559,148.041188,-9326.594869,-70940.443115
2754.399126,3404.947333,-10955.047942,-74770.920605
2754.401693,3404.947333,-8438.347739,-75996.673402
2754.404259,-444.123565,-3552.988522,-75077.358804
2754.406826,-7550.100608,1628.453072,-71859.757712
2754.409393,-7105.977043,2516.700203,-71706.538613
2754.411960,1628.453072,7550.100608,-73085.510509
2754.414526,6513.812290,7254.018232,-75383.797003
2754.417093,8142.265362,1184.329507,-75077.358804
2754.419660,-2072.576638,-8734.430116,-74617.701505
2754.422226,-11991.336260,-9178.553681,-71246.881314
2754.424794,-7105.977043,-6661.853478,-72472.634111
2754.427362,-444.123565,0.000000,-74311.263306
2754.429929,2516.700203,2812.782580,-76149.892501
2754.432497,2812.782580,-1184.329507,-73391.948708
2754.435064,1036.288319,-2516.700203,-70480.785816
2754.437632,-2220.617826,1332.370696,-73238.729609
2754.440199,2812.782580,-2072.576638,-78448.178995
2754.442767,-3108.864956,2072.576638,-75537.016103
2754.445334,-4737.318029,-1332.370696,-71706.538613
2754.447902,-4293.194464,-6809.894666,-71553.319513
2754.450469,-4885.359217,-7698.141797,-73851.606007
2754.453037,-1924.535449,-2664.741391,-74158.044206
2754.455605,2072.576638,5329.482782,-73391.948708
2754.458172,148.041188,-3256.906145,-76303.111601
2754.460740,-5773.606348,-148.041188,-73085.510509
2754.463307,-7402.059420,-1924.535449,-70327.566716
2754.465875,-444.123565,1480.411884,-72166.195912
2754.468442,4885.359217,-888.247130,-76149.892501
2754.471010,4589.276840,592.164754,-76149.892501
2754.473577,-4589.276840,-6513.812290,-72472.634111
2754.476145,-3256.906145,-2368.659014,-70480.785816
2754.478713,-296.082377,-592.164754,-75383.797003
2754.481280,-1184.329507,1332.370696,-75996.673402
2754.483848,6661.853478,5033.400406,-72625.853210
2754.486415,8438.347739,9030.512492,-71706.538613
2754.488983,148.041188,-2664.741391,-75383.797003
2754.491550,-4589.276840,-3108.864956,-73545.167808
2754.494118,4441.235652,9918.759623,-69867.909418
2754.496685,6661.853478,3552.988522,-77222.426198
2754.499253,1776.494261,592.164754,-77835.302597
2754.501820,1776.494261,6365.771101,-68335.718422
2754.504388,2072.576638,5181.441594,-69867.909418
2754.506956,4145.153275,0.000000,-78141.740796
2754.509523,6809.894666,2812.782580,-75690.235202
2754.512091,3108.864956,6957.935855,-70634.004916
2754.514658,-1332.370696,888.247130,-74770.920605
2754.517226,-2664.741391,-3404.947333,-75537.016103
2754.519793,1184.329507,1480.411884,-72012.976812
2754.522361,7105.977043,5181.441594,-71246.881314
2754.524928,7698.141797,5773.606348,-76303.111601
2754.527496,2368.659014,3701.029710,-74004.825107
2754.530065,-592.164754,5773.606348,-70634.004916
2754.532633,-1628.453072,-4589.276840,-74464.482406
2754.535201,-888.247130,1332.370696,-74464.482406
2754.537769,3849.070898,5921.647536,-73085.510509
2754.540338,4737.318029,888.247130,-73698.386908
2754.542906,2812.782580,1036.288319,-72319.415011
2754.545474,3701.029710,1036.288319,-71859.757712
2754.548042,8438.347739,7402.059420,-72625.853210
2754.550610,6809.894666,5477.523971,-76915.987999
2754.553179,2072.576638,8142.265362,-74464.482406
2754.555747,-2220.617826,3108.864956,-72166.195912
2754.558315,592.164754,1924.535449,-70480.785816
2754.560883,5181.441594,-296.082377,-73698.386908
2754.563452,10066.800811,3404.947333,-74617.701505
2754.566020,5329.482782,5921.647536,-74464.482406
2754.568588,-2812.782580,1480.411884,-74464.482406
2754.571156,-1332.370696,-296.082377,-74004.825107
2754.573724,5773.606348,6069.688724,-72625.853210
2754.576293,4145.153275,3849.070898,-74770.920605
2754.578861,2072.576638,1628.453072,-74004.825107
2754.581429,4441.235652,6365.771101,-71706.538613
2754.583997,-5181.441594,-7254.018232,-75537.016103
2754.586565,-7698.141797,-7105.977043,-74311.263306
2754.589134,-148.041188,-2516.700203,-70940.443115
2754.591702,3256.906145,-444.123565,-72779.072310
2754.594270,-2664.741391,-6069.688724,-76915.987999
2754.596838,-4441.235652,2812.782580,-72319.415011
2754.599407,-740.205942,2516.700203,-71706.538613
2754.601975,-1184.329507,-1036.288319,-75690.235202
2754.604543,-1480.411884,444.123565,-74617.701505
2754.607111,-5033.400406,-296.082377,-72625.853210
2754.609679,-4441.235652,-6217.729913,-73851.606007
2754.612248,-1628.453072,-5773.606348,-75383.797003
2754.614816,1184.329507,0.000000,-73085.510509
2754.617384,888.247130,1184.329507,-71706.538613
2754.619952,-1480.411884,-592.164754,-74464.482406
2754.622521,-6069.688724,2220.617826,-74770.920605
2754.625089,-5329.482782,1184.329507,-73698.386908
2754.627657,-1184.329507,-3256.906145,-74311.263306
2754.630226,2220.617826,-148.041188,-73238.729609
2754.632795,4589.276840,-3108.864956,-73238.729609
2754.635364,-740.205942,2368.659014,-73238.729609
2754.637933,1036.288319,-2664.741391,-74924.139704
2754.640502,-592.164754,888.247130,-73545.167808
2754.643071,-4885.359217,-2664.741391,-71246.881314
2754.645640,148.041188,-8734.430116,-75230.577904
2754.648209,-1332.370696,-2072.576638,-73851.606007
2754.650778,-1776.494261,-2960.823768,-73391.948708
2754.653347,1184.329507,1480.411884,-72166.195912
2754.655916,-1776.494261,-5773.606348,-74924.139704
2754.658485,-3849.070898,0.000000,-72932.291410
2754.661054,-1628.453072,1628.453072,-73545.167808
2754.663623,1332.370696,2664.741391,-74617.701505
2754.666192,148.041188,-1184.329507,-75230.577904
2754.668761,-5625.565159,-3552.988522,-71093.662214
2754.671330,-1184.329507,-1036.288319,-72166.195912
2754.673899,-148.041188,-6217.729913,-77375.645298
2754.676468,-296.082377,0.000000,-74770.920605
2754.679037,3849.070898,6365.771101,-70787.224015
2754.681606,7254.018232,7698.141797,-73391.948708
2754.684175,-740.205942,-2516.700203,-76609.549800
2754.686744,0.000000,4885.359217,-71093.662214
2754.689313,6365.771101,12287.418637,-69408.252119
2754.691882,8142.265362,1776.494261,-78448.178995
2754.694451,148.041188,-2368.659014,-76149.892501
2754.697020,-1628.453072,4293.194464,-68029.280222
2754.699589,1184.329507,1628.453072,-72012.976812
2754.702158,5773.606348,2072.576638,-78141.740796
2754.704727,8290.306550,7846.182985,-73545.167808
2754.707296,3849.070898,7105.977043,-70940.443115
2754.709865,592.164754,-296.082377,-74617.701505
2754.712434,-1628.453072,-2368.659014,-75383.797003
2754.715003,-148.041188,3108.864956,-71246.881314
2754.717573,3108.864956,3701.029710,-72779.072310
2754.720142,6809.894666,1924.535449,-75843.454302
2754.722711,2516.700203,7550.100608,-71859.757712
2754.725281,592.164754,1036.288319,-72012.976812
2754.727850,-2516.700203,-1036.288319,-73851.606007
2754.730419,-888.247130,1332.370696,-74311.263306
2754.732988,-1628.453072,6217.729913,-73851.606007
2754.735558,3404.947333,-1036.288319,-75537.016103
2754.738127,5773.606348,2960.823768,-73238.729609
2754.740696,6069.688724,4145.153275,-71093.662214
2754.743265,5033.400406,4885.359217,-74004.825107
2754.745835,3552.988522,7994.224174,-75230.577904
2754.748404,-2516.700203,2664.741391,-75537.016103
2754.750973,1332.370696,6069.688724,-71553.319513
2754.753542,6661.853478,296.082377,-72319.415011
2754.756112,6513.812290,1628.453072,-73851.606007
2754.758681,296.082377,-1480.411884,-74464.482406
2754.761250,296.082377,4589.276840,-72012.976812
2754.763819,8142.265362,6957.935855,-73698.386908
2754.766389,6513.812290,3552.988522,-76149.892501
2754.768958,-2072.576638,1332.370696,-72166.195912
2754.771527,1036.288319,3552.988522,-70634.004916
2754.774096,-148.041188,-592.164754,-75690.235202
2754.776666,-7550.100608,-5921.647536,-76609.549800
2754.779235,296.082377,-1332.370696,-70327.566716
2754.781804,5181.441594,-4145.153275,-71859.757712
2754.784373,0.000000,-7105.977043,-77222.426198
2754.786943,-6661.853478,-2368.659014,-73698.386908
2754.789512,-5625.565159,6365.771101,-70174.347617
2754.792081,1036.288319,1332.370696,-76915.987999
2754.794651,3404.947333,-1184.329507,-76609.549800
2754.797220,296.082377,-148.041188,-68948.594820
2754.799789,-4441.235652,-2072.576638,-70787.224015
2754.802358,-5329.482782,-9770.718434,-77375.645298
2754.804928,-4293.194464,-6513.812290,-75996.673402
2754.807497,-296.082377,4145.153275,-71246.881314
2754.810066,1184.329507,-148.041188,-74311.263306
2754.812635,-296.082377,-148.041188,-74770.920605
2754.815205,-3256.906145,2072.576638,-71093.662214
2754.817774,-740.205942,1924.535449,-72166.195912
2754.820344,-1480.411884,-1628.453072,-78141.740796
2754.822913,-592.164754,-3108.864956,-75537.016103
2754.825483,740.205942,3849.070898,-70940.443115
2754.828052,-3997.112087,-1480.411884,-71859.757712
2754.830622,-2220.617826,-3256.906145,-75996.673402
2754.833191,-1480.411884,-740.205942,-72166.195912
2754.835761,-1332.370696,-444.123565,-71859.757712
2754.838330,-5773.606348,-7254.018232,-76915.987999
2754.840900,-3849.070898,-4441.235652,-73698.386908
2754.843469,-3849.070898,-3404.947333,-70174.347617
2754.846039,-2664.741391,-3849.070898,-73391.948708
2754.848608,1924.535449,-740.205942,-75537.016103
2754.851178,3849.070898,6661.853478,-73545.167808
2754.853747,1480.411884,5329.482782,-72932.291410
2754.856317,-7550.100608,-6069.688724,-74158.044206
2754.858886,-4737.318029,-4145.153275,-71859.757712
2754.861456,2220.617826,-592.164754,-72932.291410
2754.864025,2516.700203,-4441.235652,-77375.645298
2754.866595,5181.441594,-2960.823768,-74311.263306
2754.869164,7254.018232,12879.583391,-69101.813920
2754.871734,740.205942,888.247130,-74464.482406
2754.874303,-3108.864956,2220.617826,-75383.797003
2754.876873,5477.523971,11399.171507,-70480.785816
2754.879442,9030.512492,8290.306550,-73391.948708
2754.882012,2664.741391,-1036.288319,-78601.398095
2754.884581,-1628.453072,-1924.535449,-73698.386908
2754.887151,0.000000,2072.576638,-68029.280222
2754.889720,3997.112087,-2220.617826,-77069.207099
2754.892290,7105.977043,4885.359217,-77528.864398
2754.894859,5921.647536,11991.336260,-72319.415011
2754.897429,1628.453072,4737.318029,-72932.291410
2754.899998,-1036.288319,-2812.782580,-74924.139704
2754.902568,1628.453072,1332.370696,-72625.853210
2754.905137,1036.288319,3404.947333,-72166.195912
2754.907707,6217.729913,2960.823768,-75690.235202
2754.910276,2516.700203,-2072.576638,-75690.235202
2754.912846,-1628.453072,6069.688724,-71246.881314
2754.915415,-592.164754,-2664.741391,-72625.853210
2754.917984,2220.617826,148.041188,-74158.044206
2754.920553,1924.535449,3849.070898,-72932.291410
2754.923122,3701.029710,3849.070898,-75077.358804
2754.925691,8290.306550,3256.906145,-76303.111601
2754.928259,6661.853478,5181.441594,-72932.291410
2754.930828,5477.523971,9474.636058,-70480.785816
2754.933397,296.082377,1776.494261,-74617.701505
2754.935966,4441.235652,7254.018232,-74158.044206
2754.938535,4737.318029,7105.977043,-75077.358804
2754.941104,4145.153275,3404.947333,-73391.948708
2754.943673,1184.329507,-3256.906145,-73391.948708
2754.946241,1036.288319,-2220.617826,-72319.415011
2754.948810,7550.100608,7846.182985,-72166.195912
2754.951379,6069.688724,4293.194464,-77375.645298
2754.953948,-1776.494261,2516.700203,-76303.111601
2754.956517,-1184.329507,6217.729913,-69408.252119
2754.959086,-740.205942,-592.164754,-73851.606007
2754.961655,-6217.729913,-10807.006753,-76303.111601
2754.964223,0.000000,592.164754,-71093.662214
2754.966792,6513.812290,-1480.411884,-72779.072310
2754.969361,-1036.288319,-10362.883188,-78907.836294
2754.971930,-6069.688724,-5921.647536,-74311.263306
2754.974499,-6513.812290,4145.153275,-67876.061123
2754.977068,-3701.029710,1776.494261,-74770.920605
2754.979637,3256.906145,0.000000,-78601.398095
2754.982205,740.205942,6069.688724,-70634.004916
2754.984774,-4441.235652,-1480.411884,-70940.443115
2754.987343,-6809.894666,-13027.624579,-75690.235202
2754.989912,-5477.523971,-8882.471304,-74158.044206
2754.992481,592.164754,2960.823768,-71400.100414
2754.995050,4589.276840,296.082377,-75383.797003
2754.997619,3404.947333,-740.205942,-75996.673402
2755.000188,-2220.617826,2812.782580,-70787.224015
2755.002756,-444.123565,3849.070898,-70634.004916
2755.005325,1332.370696,-7105.977043,-77069.207099
2755.007894,-1776.494261,3997.112087,-75077.358804
2755.010463,2516.700203,2516.700203,-72932.291410
2755.013032,-1776.494261,-3404.947333,-74464.482406
2755.015601,-3552.988522,-3701.029710,-71859.757712
2755.018170,-2368.659014,1184.329507,-70480.785816
2755.020738,-3849.070898,-3849.070898,-75996.673402
2755.023307,-3108.864956,-5773.606348,-75996.673402
2755.025875,-4293.194464,-7105.977043,-75077.358804
2755.028444,-3108.864956,-5773.606348,-72012.976812
2755.031012,2664.741391,-1776.494261,-73698.386908
2755.033581,2516.700203,3701.029710,-74158.044206
2755.036149,740.205942,9918.759623,-73545.167808
2755.038718,-8290.306550,-3404.947333,-74464.482406
2755.041286,-4885.359217,-1332.370696,-73698.386908
2755.043855,3256.906145,-5033.400406,-73238.729609
2755.046424,-1480.411884,-5477.523971,-74770.920605
2755.048992,1480.411884,-4145.153275,-74464.482406
2755.051561,6661.853478,10362.883188,-73851.606007
2755.054129,444.123565,5033.400406,-75690.235202
2755.056698,-1036.288319,2812.782580,-73698.386908
2755.059266,7105.977043,13471.748144,-68795.375720
2755.061835,7402.059420,1332.370696,-76456.330700
2755.064403,888.247130,2664.741391,-77375.645298
2755.066972,-1924.535449,-1776.494261,-73238.729609
2755.069540,-2368.659014,1480.411884,-69561.471218
2755.072109,4737.318029,-4885.359217,-75537.016103
2755.074678,10362.883188,4885.359217,-74311.263306
2755.077246,6069.688724,12139.377449,-71553.319513
2755.079815,-148.041188,4737.318029,-74158.044206
2755.082383,-4145.153275,1184.329507,-75690.235202
2755.084952,-592.164754,444.123565,-70940.443115
2755.087520,7846.182985,2664.741391,-72779.072310
2755.090089,6661.853478,-4589.276840,-77528.864398
2755.092657,-888.247130,8142.265362,-72625.853210
2755.095226,1628.453072,-5625.565159,-73698.386908
2755.097794,-3701.029710,1480.411884,-72319.415011
2755.100363,-1036.288319,-592.164754,-74158.044206
2755.102931,5181.441594,1480.411884,-73698.386908
2755.105500,5181.441594,7846.182985,-74311.263306
2755.108069,7698.141797,1628.453072,-75383.797003
2755.110637,3849.070898,7698.141797,-72012.976812
2755.113206,592.164754,2220.617826,-73085.510509
2755.115774,4441.235652,9474.636058,-73238.729609
2755.118343,1036.288319,3108.864956,-77069.207099
2755.120911,1628.453072,3849.070898,-74924.139704
2755.123451,-296.082377,-592.164754,-72472.634111
2755.125990,5329.482782,-1480.411884,-71400.100414
2755.128529,7254.018232,2368.659014,-74924.139704
2755.131069,-444.123565,1332.370696,-75230.577904
2755.133608,-3849.070898,5329.482782,-72625.853210
2755.136147,148.041188,10955.047942,-72319.415011
2755.138686,-4737.318029,-7698.141797,-76303.111601
2755.141226,-3701.029710,-6513.812290,-72625.853210
2755.143765,5329.482782,-148.041188,-69714.690318
2755.146304,4441.235652,-2664.741391,-75383.797003
2755.148844,-4293.194464,-11399.171507,-77988.521696
2755.151383,-8142.265362,-592.164754,-69255.033019
2755.153922,-3552.988522,4441.235652,-70634.004916
2755.156462,2368.659014,148.041188,-76762.768900
2755.159001,5033.400406,3256.906145,-74158.044206
2755.161540,888.247130,2072.576638,-70787.224015
2755.164080,-4885.359217,-3552.988522,-73698.386908
2755.166619,-7254.018232,-12287.418637,-76609.549800
2755.169158,-4145.153275,-5773.606348,-71859.757712
2755.171698,2516.700203,1776.494261,-72932.291410
2755.174237,2812.782580,-740.205942,-77069.207099
2755.176776,-3256.906145,0.000000,-73238.729609
2755.179316,444.123565,3849.070898,-68948.594820
2755.181855,2664.741391,-2516.700203,-73545.167808
2755.184394,-2664.741391,2072.576638,-77528.864398
2755.186933,2812.782580,2812.782580,-75230.577904
2755.189473,-3404.947333,-1184.329507,-73545.167808
2755.192012,-5329.482782,-5033.400406,-72012.976812
2755.194551,-5329.482782,-6957.935855,-71553.319513
2755.197091,-4293.194464,888.247130,-73698.386908
2755.199630,-3404.947333,-7105.977043,-77375.645298
2755.202169,-3701.029710,-4737.318029,-74158.044206
2755.204709,-148.041188,-6365.771101,-72625.853210
2755.207248,1924.535449,3701.029710,-72472.634111
2755.209787,-1036.288319,1924.535449,-75843.454302
2755.212327,-6809.894666,2664.741391,-74004.825107
2755.214866,-5773.606348,2960.823768,-72012.976812
2755.217405,3701.029710,-1480.411884,-73545.167808
2755.219945,5181.441594,-6809.894666,-75077.358804
2755.222484,1036.288319,-9770.718434,-72166.195912
2755.225029,4293.194464,10362.883188,-71400.100414
2755.227573,-1480.411884,1332.370696,-78907.836294
2755.230118,-3256.906145,6661.853478,-74311.263306
2755.232663,7550.100608,13323.706956,-68029.280222
2755.235208,10214.842000,8290.306550,-71706.538613
2755.237752,8882.471304,-1036.288319,-79520.712692
2755.240297,148.041188,148.041188,-74004.825107
2755.242842,-5033.400406,5181.441594,-69255.033019
2755.245387,296.082377,-8438.347739,-78141.740796
2755.247932,9178.553681,1924.535449,-73851.606007
2755.250476,11695.253884,11695.253884,-68795.375720
2755.253021,7254.018232,10807.006753,-72779.072310
2755.255566,-296.082377,888.247130,-79061.055394
2755.258111,-5773.606348,2072.576638,-73085.510509
2755.260655,-1184.329507,1480.411884,-70021.128517
2755.263200,4737.318029,-2368.659014,-75690.235202
2755.265745,2812.782580,3701.029710,-76915.987999
2755.268290,1184.329507,4589.276840,-73545.167808
2755.270834,888.247130,-148.041188,-69561.471218
2755.273379,-3256.906145,-2072.576638,-72932.291410
2755.275924,1628.453072,3552.988522,-76149.892501
2755.278469,5773.606348,5477.523971,-75537.016103
2755.281014,3701.029710,6809.894666,-74311.263306
2755.283558,5033.400406,5773.606348,-71400.100414
2755.286103,4737.318029,5921.647536,-71093.662214
2755.288648,4293.194464,5477.523971,-73698.386908
2755.291193,5773.606348,7550.100608,-74311.263306
2755.293737,-1776.494261,148.041188,-74464.482406
2755.296282,-1924.535449,-2664.741391,-73698.386908
2755.298827,8290.306550,1332.370696,-73391.948708
2755.301372,6957.935855,1184.329507,-73698.386908
2755.303916,-888.247130,3404.947333,-73085.510509
2755.306461,296.082377,9178.553681,-71859.757712
2755.309006,-296.082377,5773.606348,-74924.139704
2755.311551,-6809.894666,-7254.018232,-76303.111601
2755.314096,-1332.370696,-3849.070898,-70480.785816
2755.316640,4145.153275,-3701.029710,-71706.538613
2755.319185,-148.041188,-9770.718434,-78601.398095
2755.321730,-5181.441594,-296.082377,-73238.729609
2755.324275,-5033.400406,3404.947333,-68948.594820
2755.326795,-592.164754,-1924.535449,-74311.263306
2755.329315,3997.112087,0.000000,-76303.111601
2755.331836,2368.659014,6069.688724,-71706.538613
2755.334356,-5329.482782,148.041188,-72472.634111
2755.336876,-7550.100608,-6513.812290,-76149.892501
2755.339397,-4885.359217,-10214.842000,-74464.482406
2755.341917,148.041188,-4145.153275,-70174.347617
2755.344437,4737.318029,1628.453072,-74924.139704
2755.346957,2960.823768,-296.082377,-76915.987999
2755.349478,-7402.059420,888.247130,-72932.291410
2755.351998,-1036.288319,4293.194464,-70021.128517
2755.354518,444.123565,-6217.729913,-75690.235202
2755.357039,-5773.606348,5181.441594,-75996.673402
2755.359559,6513.812290,-148.041188,-76609.549800
2755.362079,-2516.700203,-1332.370696,-69714.690318
2755.364600,-3552.988522,-3256.906145,-70327.566716
2755.367120,-8438.347739,-14063.912898,-76149.892501
2755.369640,-7994.224174,444.123565,-74311.263306
2755.372161,-1628.453072,-7105.977043,-75843.454302
2755.374681,5033.400406,3552.988522,-72472.634111
2755.377201,4885.359217,-3108.864956,-72932.291410
2755.379722,-1480.411884,4589.276840,-71706.538613
2755.382242,-11399.171507,-1184.329507,-73545.167808
2755.384762,-3997.112087,5921.647536,-73085.510509
2755.387283,3997.112087,-1924.535449,-77069.207099
2755.389803,2368.659014,-8586.388927,-74924.139704
2755.392323,6513.812290,-3701.029710,-69101.813920
2755.394843,5625.565159,7846.182985,-71093.662214
2755.397364,148.041188,2664.741391,-77988.521696
2755.399884,-4885.359217,5773.606348,-75230.577904
2755.402404,7846.182985,19097.313304,-68795.375720
2755.404925,10658.965565,2368.659014,-75537.016103
2755.407445,5329.482782,-1776.494261,-77222.426198
2755.409965,-1332.370696,0.000000,-70634.004916
2755.412486,-1924.535449,3108.864956,-71400.100414
2755.415006,1924.535449,-6513.812290,-79367.493593
2755.417526,8142.265362,4737.318029,-74464.482406
2755.420047,9474.636058,13175.665768,-68335.718422
2755.422567,2812.782580,4737.318029,-74158.044206
2755.425087,-4145.153275,1628.453072,-76149.892501
2755.427617,-2220.617826,2812.782580,-71706.538613
2755.430147,2516.700203,3256.906145,-72012.976812
2755.432676,4441.235652,-3256.906145,-75230.577904
2755.435206,-1332.370696,4441.235652,-75230.577904
2755.437736,1924.535449,-2072.576638,-72625.853210
2755.440265,1036.288319,-1332.370696,-70787.224015
2755.442795,888.247130,3404.947333,-70634.004916
2755.445325,4293.194464,6661.853478,-77375.645298
2755.447854,6809.894666,5773.606348,-79061.055394
2755.450384,8586.388927,6661.853478,-72166.195912
2755.452914,9178.553681,9918.759623,-68948.594820
2755.455443,3997.112087,5181.441594,-71859.757712
2755.457973,-592.164754,4441.235652,-74924.139704
2755.460503,-3701.029710,0.000000,-75996.673402
2755.463032,5921.647536,1480.411884,-73085.510509
2755.465562,11547.212695,888.247130,-73085.510509
2755.468092,7254.018232,-148.041188,-72932.291410
2755.470621,-1332.370696,444.123565,-70940.443115
2755.473151,-148.041188,12435.459826,-72472.634111
2755.475681,-4885.359217,2516.700203,-77835.302597
2755.478210,-6217.729913,-2960.823768,-77222.426198
2755.480740,444.123565,-5625.565159,-69408.252119
2755.483270,6809.894666,-7402.059420,-73391.948708
2755.485799,-1332.370696,-13471.748144,-78141.740796
2755.488329,-7698.141797,1480.411884,-72625.853210
2755.490859,-6069.688724,6957.935855,-70940.443115
2755.493388,-740.205942,-2368.659014,-77528.864398
2755.495918,3552.988522,-1776.494261,-74617.701505
2755.498448,3552.988522,6957.935855,-68029.280222
2755.500977,-3997.112087,-3256.906145,-74770.920605
2755.503507,-8142.265362,-7994.224174,-78448.178995
2755.506037,-5181.441594,-5033.400406,-73085.510509
2755.508566,1184.329507,-1776.494261,-70634.004916
2755.511096,-1184.329507,-444.123565,-76609.549800
2755.513626,2220.617826,2812.782580,-74311.263306
2755.516155,-148.041188,592.164754,-70940.443115
2755.518685,-296.082377,296.082377,-71093.662214
2755.521215,6069.688724,444.123565,-75996.673402
2755.523744,-3997.112087,444.123565,-75996.673402
2755.526274,-3849.070898,-888.247130,-74464.482406
2755.528812,-6661.853478,-8586.388927,-70634.004916
2755.531350,-8734.430116,-4441.235652,-70174.347617
2755.533888,-2664.741391,-5773.606348,-75383.797003
2755.536426,2368.659014,-1924.535449,-76149.892501
2755.538964,6069.688724,592.164754,-73851.606007
2755.541502,3108.864956,1924.535449,-72319.415011
2755.544040,-10362.883188,-4293.194464,-73391.948708
2755.546578,-11843.295072,-1776.494261,-72779.072310
2755.549116,-2220.617826,3404.947333,-73391.948708
2755.551654,4589.276840,1036.288319,-76303.111601
2755.554192,5773.606348,-6957.935855,-74158.044206
2755.556730,7402.059420,1036.288319,-69408.252119
2755.559268,1924.535449,3701.029710,-71859.757712
2755.561806,-6513.812290,2516.700203,-77375.645298
2755.564344,-1628.453072,9622.677246,-73851.606007
2755.566882,7994.224174,15100.201217,-71093.662214
2755.569420,11547.212695,3552.988522,-76149.892501
2755.571958,3997.112087,-4293.194464,-74617.701505
2755.574496,-592.164754,1184.329507,-68182.499322
2755.577034,-2664.741391,-2960.823768,-75537.016103
2755.579571,1480.411884,1480.411884,-78294.959896
2755.582109,5773.606348,8142.265362,-73545.167808
2755.584647,9326.594869,8142.265362,-70174.347617
2755.587185,5625.565159,2072.576638,-74004.825107
2755.589723,1184.329507,2220.617826,-74311.263306
2755.592261,148.041188,-148.041188,-72319.415011
2755.594799,3108.864956,2072.576638,-73238.729609
2755.597337,3404.947333,3404.947333,-77835.302597
2755.599875,1332.370696,-740.205942,-75843.454302
2755.602413,740.205942,-592.164754,-68642.156621
2755.604951,3997.112087,3552.988522,-70327.566716
2755.607489,6661.853478,2220.617826,-74924.139704
2755.610027,8142.265362,11547.212695,-76303.111601
2755.612565,10658.965565,7105.977043,-76303.111601
2755.615103,6957.935855,7994.224174,-71859.757712
2755.617641,888.247130,1776.494261,-71859.757712
2755.620179,-3108.864956,1036.288319,-72012.976812
2755.622717,-4737.318029,1480.411884,-74158.044206
2755.625255,9030.512492,5625.565159,-75843.454302
2755.627793,13323.706956,4737.318029,-74617.701505
2755.630308,888.247130,-3849.070898,-72932.291410
2755.632824,-4441.235652,1184.329507,-70480.785816
2755.635340,-4441.235652,7994.224174,-71553.319513
2755.637856,-8882.471304,-1628.453072,-78754.617194
2755.640372,-5181.441594,-2960.823768,-75996.673402
2755.642887,7105.977043,1332.370696,-69255.033019
2755.645403,5773.606348,-9770.718434,-72472.634111
2755.647919,-2072.576638,-11399.171507,-74924.139704
2755.650435,-11399.171507,1480.411884,-71246.881314
2755.652950,-7402.059420,5329.482782,-74617.701505
2755.655466,3404.947333,-1480.411884,-78754.617194
2755.657982,5181.441594,444.123565,-71859.757712
2755.660498,2072.576638,4145.153275,-68182.499322
2755.663014,-3997.112087,-9918.759623,-74004.825107
2755.665529,-7402.059420,-3701.029710,-76149.892501
2755.668045,148.041188,-2960.823768,-73851.606007
2755.670561,888.247130,-2664.741391,-73545.167808
2755.673077,444.123565,-2072.576638,-74617.701505
2755.675592,888.247130,1332.370696,-72625.853210
2755.678108,1480.411884,1628.453072,-70634.004916
2755.680624,592.164754,1036.288319,-73698.386908
2755.683140,-740.205942,1628.453072,-76303.111601
2755.685656,-2220.617826,592.164754,-76303.111601
2755.688171,-4885.359217,-5921.647536,-72625.853210
2755.690687,-9178.553681,-9030.512492,-69408.252119
2755.693203,-8142.265362,-7254.018232,-71859.757712
2755.695719,2072.576638,-740.205942,-77528.864398
2755.698234,6365.771101,3701.029710,-76915.987999
2755.700750,3552.988522,3552.988522,-73851.606007
2755.703266,-6957.935855,-3849.070898,-71246.881314
2755.705782,-10955.047942,-5033.400406,-70787.224015
2755.708298,-2368.659014,-592.164754,-72779.072310
2755.710813,3256.906145,1924.535449,-77528.864398
2755.713329,-740.205942,-5921.647536,-77528.864398
2755.715845,6957.935855,3849.070898,-70021.128517
2755.718361,3256.906145,-592.164754,-72012.976812
2755.720876,-5625.565159,2220.617826,-74004.825107
2755.723392,-296.082377,8290.306550,-73085.510509
2755.725908,7254.018232,15840.407159,-73085.510509
2755.728424,9918.759623,2812.782580,-78754.617194
2755.730951,3404.947333,-1776.494261,-74311.263306
2755.733478,-1480.411884,-1332.370696,-67416.403824
2755.736005,-1036.288319,-444.123565,-71859.757712
2755.738532,3701.029710,444.123565,-78754.617194
2755.741059,9770.718434,8586.388927,-74617.701505
2755.743586,7550.100608,8882.471304,-71553.319513
2755.746113,-1184.329507,1628.453072,-73545.167808
2755.748640,-1924.535449,1628.453072,-73238.729609
2755.751167,2220.617826,-592.164754,-72319.415011
2755.753694,5033.400406,3404.947333,-74158.044206
2755.756221,5477.523971,0.000000,-78754.617194
2755.758748,1184.329507,2368.659014,-74158.044206
2755.761275,1776.494261,148.041188,-69867.909418
2755.763802,1332.370696,-4441.235652,-71400.100414
2755.766330,5329.482782,9326.594869,-74924.139704
2755.768857,10807.006753,10362.883188,-76456.330700
2755.771384,9622.677246,11991.336260,-75996.673402
2755.773911,4589.276840,3997.112087,-72932.291410
2755.776438,-1628.453072,444.123565,-69408.252119
2755.778965,-6809.894666,-3404.947333,-71246.881314
2755.781492,2516.700203,888.247130,-75690.235202
2755.784019,9770.718434,7254.018232,-78601.398095
2755.786546,6217.729913,4145.153275,-75383.797003
2755.789073,-592.164754,888.247130,-68948.594820
2755.791600,-592.164754,5921.647536,-69255.033019
2755.794127,-7994.224174,-3849.070898,-77222.426198
2755.796654,-8734.430116,-3701.029710,-77528.864398
2755.799181,3256.906145,3256.906145,-72932.291410
2755.801708,4145.153275,-5625.565159,-74770.920605
2755.804235,-1480.411884,-13619.789333,-75230.577904
2755.806762,-6809.894666,-3404.947333,-68182.499322
2755.809289,-6217.729913,5329.482782,-70021.128517
2755.811816,-888.247130,1776.494261,-80593.246390
2755.814344,4589.276840,3404.947333,-76149.892501
2755.816871,3108.864956,1184.329507,-68795.375720
2755.819398,-5921.647536,-8290.306550,-70634.004916
2755.821925,-9918.759623,-6957.935855,-74770.920605
2755.824452,-4441.235652,-3701.029710,-73545.167808
2755.826979,6809.894666,3108.864956,-73698.386908
2755.829506,3849.070898,888.247130,-75843.454302
2755.832043,-2220.617826,-3108.864956,-73391.948708
2755.834580,-2960.823768,296.082377,-68795.375720
2755.837116,-2664.741391,592.164754,-74158.044206
2755.839653,2516.700203,-1924.535449,-80286.808190
2755.842190,-2960.823768,3404.947333,-74311.263306
2755.844727,-5773.606348,-5921.647536,-73085.510509
2755.847264,-6069.688724,-10214.842000,-70940.443115
2755.849800,-7105.977043,-12287.418637,-70787.224015
2755.852337,1776.494261,2516.700203,-72779.072310
2755.854874,3701.029710,5181.441594,-78294.959896
2755.857411,-2516.700203,5181.441594,-79061.055394
2755.859948,-9474.636058,-2960.823768,-69561.471218
2755.862485,-3552.988522,-2220.617826,-68335.718422
2755.865021,5921.647536,-3552.988522,-74924.139704
2755.867558,-888.247130,-6661.853478,-78754.617194
2755.870095,4441.235652,3701.029710,-73085.510509
2755.872632,5773.606348,7698.141797,-72932.291410
2755.875169,-2368.659014,-2960.823768,-76609.549800
2755.877706,-3997.112087,1776.494261,-70327.566716
2755.880242,6809.894666,17764.942608,-67109.965625
2755.882779,10214.842000,2812.782580,-81972.218286
2755.885316,5773.606348,2812.782580,-78754.617194
2755.887853,-888.247130,2812.782580,-67416.403824
2755.890390,-4589.276840,-3997.112087,-69101.813920
2755.892927,-1776.494261,-10066.800811,-77375.645298
2755.895463,7994.224174,5921.647536,-74464.482406
2755.898000,12139.377449,18061.024985,-70940.443115
2755.900537,10214.842000,5773.606348,-77069.207099
2755.903074,1776.494261,-1332.370696,-75690.235202
2755.905611,-4293.194464,-3108.864956,-68642.156621
2755.908147,1776.494261,2812.782580,-71859.757712
2755.910684,4145.153275,4293.194464,-80899.684589
2755.913221,-1628.453072,3256.906145,-74617.701505
2755.915758,740.205942,3108.864956,-69561.471218
2755.918295,4885.359217,-4145.153275,-71246.881314
2755.920832,6365.771101,6217.729913,-72472.634111
2755.923368,9474.636058,10510.924376,-76609.549800
2755.925905,8882.471304,16580.613101,-77682.083497
2755.928442,2220.617826,2664.741391,-75690.235202
2755.930979,-1184.329507,-888.247130,-68948.594820
2755.933523,-1332.370696,-4885.359217,-69408.252119
2755.936068,7105.977043,3849.070898,-75996.673402
2755.938612,10214.842000,5477.523971,-78907.836294
2755.941157,-592.164754,3552.988522,-75690.235202
2755.943701,0.000000,4589.276840,-69867.909418
2755.946245,-2960.823768,1480.411884,-71400.100414
2755.948790,-7846.182985,-7254.018232,-74464.482406
2755.951334,-1924.535449,1036.288319,-72625.853210
2755.953879,5921.647536,-444.123565,-76762.768900
2755.956423,888.247130,-10955.047942,-78448.178995
2755.958967,-4441.235652,-5625.565159,-69101.813920
2755.961512,-9030.512492,-2368.659014,-67416.403824
2755.964056,-3256.906145,296.082377,-75383.797003
2755.966601,3404.947333,3108.864956,-79673.931792
2755.969145,6365.771101,10362.883188,-73085.510509
2755.971689,592.164754,888.247130,-71706.538613
2755.974234,-4885.359217,-13767.830521,-75077.358804
2755.976778,-7402.059420,-8438.347739,-71859.757712
2755.979323,3997.112087,-1332.370696,-72779.072310
2755.981867,5181.441594,1924.535449,-77528.864398
2755.984411,1184.329507,1924.535449,-76915.987999
2755.986956,-1924.535449,148.041188,-70940.443115
2755.989500,1036.288319,-1924.535449,-69714.690318
2755.992045,-2960.823768,-5625.565159,-74311.263306
2755.994589,-4145.153275,3997.112087,-77375.645298
2755.997134,-7846.182985,-3997.112087,-76915.987999
2755.999678,-8586.388927,-6513.812290,-72012.976812
2756.002222,-4145.153275,-14508.036463,-71859.757712
2756.004767,3552.988522,2072.576638,-70634.004916
2756.007311,2664.741391,4293.194464,-77069.207099
2756.009856,-5329.482782,3404.947333,-78601.398095
2756.012400,-9474.636058,-444.123565,-73391.948708
2756.014944,-4441.235652,-592.164754,-70021.128517
2756.017489,3997.112087,-5033.400406,-72472.634111
2756.020033,1480.411884,-8142.265362,-75537.016103
2756.022578,9030.512492,3552.988522,-72625.853210
2756.025122,8586.388927,9770.718434,-73698.386908
2756.027666,-3256.906145,1924.535449,-76609.549800
2756.030211,-2664.741391,1924.535449,-69561.471218
2756.032755,7105.977043,17912.983796,-67722.842023
2756.035306,8586.388927,-148.041188,-80286.808190
2756.037858,8734.430116,6809.894666,-77988.521696
2756.040409,1628.453072,4441.235652,-70480.785816
2756.042960,-2072.576638,592.164754,-69867.909418
2756.045511,-444.123565,-12731.542202,-76762.768900
2756.048062,4737.318029,2960.823768,-73391.948708
2756.050613,9622.677246,17468.860231,-71859.757712
2756.053165,1924.535449,3552.988522,-78754.617194
2756.055716,-592.164754,-2220.617826,-75843.454302
2756.058267,296.082377,5033.400406,-66190.651027
2756.060818,1036.288319,1924.535449,-71093.662214
2756.063369,1628.453072,-1776.494261,-80286.808190
2756.065920,1628.453072,6365.771101,-76762.768900
2756.068472,-888.247130,5773.606348,-70174.347617
2756.071023,5773.606348,-296.082377,-70787.224015
2756.073574,9622.677246,5033.400406,-73238.729609
2756.076125,11103.089130,12879.583391,-75230.577904
2756.078676,3849.070898,9770.718434,-77528.864398
2756.081227,-3256.906145,2220.617826,-75383.797003
2756.083779,-3849.070898,-4293.194464,-70327.566716
2756.086330,3997.112087,1184.329507,-70480.785816
2756.088881,10807.006753,-1776.494261,-75843.454302
2756.091432,5625.565159,6513.812290,-75843.454302
2756.093983,-444.123565,5329.482782,-73085.510509
2756.096534,-3108.864956,6365.771101,-73391.948708
2756.099086,-10066.800811,-12139.377449,-76915.987999
2756.101637,-6513.812290,-2960.823768,-70327.566716
2756.104188,3552.988522,1480.411884,-70634.004916
2756.106739,5181.441594,-6513.812290,-79980.369991
2756.109290,-888.247130,-8586.388927,-77988.521696
2756.111841,-6513.812290,592.164754,-67416.403824
2756.114393,-4737.318029,888.247130,-68182.499322
2756.116949,-1628.453072,-4885.359217,-78448.178995
2756.119504,3701.029710,3256.906145,-76303.111601
2756.122060,444.123565,5477.523971,-72319.415011
2756.124616,-5477.523971,-4145.153275,-74924.139704
2756.127172,-8734.430116,-12139.377449,-74617.701505
2756.129728,-1036.288319,-2368.659014,-69408.252119
2756.132284,3256.906145,740.205942,-72625.853210
2756.134840,1628.453072,2220.617826,-79520.712692
2756.137396,-444.123565,3108.864956,-74924.139704
2756.139952,-5921.647536,-296.082377,-70634.004916
2756.142507,-4145.153275,-5329.482782,-71246.881314
2756.145063,-2960.823768,-5921.647536,-76456.330700
2756.147619,-5329.482782,2368.659014,-73238.729609
2756.150175,-8586.388927,-7402.059420,-74158.044206
2756.152731,-2220.617826,-7254.018232,-72319.415011
2756.155287,1184.329507,-5477.523971,-73851.606007
2756.157843,296.082377,4441.235652,-72166.195912
2756.160399,-8290.306550,-888.247130,-77222.426198
2756.162955,-7254.018232,1924.535449,-73851.606007
2756.165511,3108.864956,3997.112087,-71400.100414
2756.168066,3701.029710,-3108.864956,-73238.729609
2756.170622,888.247130,-8734.430116,-74464.482406
2756.173178,5181.441594,7698.141797,-70787.224015
2756.175734,2664.741391,6069.688724,-76762.768900
2756.178290,-3256.906145,1776.494261,-77682.083497
2756.180846,2664.741391,7698.141797,-69408.252119
2756.183402,10066.800811,12583.501014,-67876.061123
2756.185958,11547.212695,4145.153275,-77222.426198
2756.188514,3997.112087,-1628.453072,-78141.740796
2756.191069,-740.205942,7254.018232,-69867.909418
2756.193625,-2220.617826,-5477.523971,-75690.235202
2756.196181,3997.112087,-2664.741391,-76303.111601
2756.198737,9918.759623,3997.112087,-70787.224015
2756.201293,11991.336260,13915.871710,-70480.785816
2756.203849,1628.453072,4145.153275,-77069.207099
2756.206405,-2072.576638,296.082377,-75996.673402
2756.208961,1628.453072,1184.329507,-69255.033019
2756.211517,-444.123565,-148.041188,-72012.976812
2756.214073,1480.411884,148.041188,-78294.959896
2756.216628,1924.535449,4145.153275,-73238.729609
2756.219189,9474.636058,11251.130318,-67876.061123
2756.221750,10658.965565,2368.659014,-74464.482406
2756.224310,10658.965565,7254.018232,-75077.358804
2756.226871,3108.864956,6957.935855,-75537.016103
2756.229432,-4589.276840,7698.141797,-73391.948708
2756.231993,-5625.565159,-2960.823768,-75230.577904
2756.234553,5181.441594,-740.205942,-71553.319513
2756.237114,12435.459826,3404.947333,-72166.195912
2756.239675,3108.864956,-1332.370696,-76456.330700
2756.242235,-740.205942,7254.018232,-72932.291410
2756.244796,-4441.235652,7994.224174,-72166.195912
2756.247357,-9622.677246,-5181.441594,-76762.768900
2756.249917,-9030.512492,-9770.718434,-73698.386908
2756.252478,3997.112087,1184.329507,-68948.594820
2756.255039,6957.935855,-3701.029710,-74924.139704
2756.257599,-2812.782580,-9326.594869,-80286.808190
2756.260160,-7698.141797,-3404.947333,-72319.415011
2756.262721,-5773.606348,5181.441594,-67876.061123
2756.265281,-740.205942,-1776.494261,-77069.207099
2756.267842,2664.741391,2072.576638,-76303.111601
2756.270403,2516.700203,4293.194464,-70940.443115
2756.272963,-3404.947333,-592.164754,-72779.072310
2756.275524,-4589.276840,-9474.636058,-75996.673402
2756.278085,-2516.700203,-5773.606348,-71553.319513
2756.280645,1480.411884,6217.729913,-69561.471218
2756.283206,148.041188,592.164754,-77682.083497
2756.285767,-2220.617826,-296.082377,-77069.207099
2756.288328,-1036.288319,2516.700203,-68182.499322
2756.290888,-1036.288319,-1184.329507,-70787.224015
2756.293449,-5329.482782,-11547.212695,-79061.055394
2756.296010,-6661.853478,-5329.482782,-73085.510509
2756.298570,-3552.988522,-2960.823768,-70327.566716
2756.301131,296.082377,-4737.318029,-75077.358804
2756.303692,2516.700203,-3997.112087,-77222.426198
2756.306252,-5033.400406,888.247130,-72319.415011
2756.308813,-9178.553681,3849.070898,-70787.224015
2756.311374,-2812.782580,-1480.411884,-76149.892501
2756.313934,4145.153275,-1480.411884,-74617.701505
2756.316495,-2368.659014,-7402.059420,-72472.634111
2756.319056,5329.482782,2664.741391,-70634.004916
2756.321591,4885.359217,1924.535449,-76762.768900
2756.324127,-1924.535449,3256.906145,-76456.330700
2756.326662,2960.823768,8882.471304,-70480.785816
2756.329197,8586.388927,12287.418637,-72012.976812
2756.331733,8734.430116,740.205942,-78448.178995
2756.334268,2960.823768,3701.029710,-73698.386908
2756.336804,-1480.411884,5181.441594,-70634.004916
2756.339339,-2368.659014,-5181.441594,-76303.111601
2756.341875,4441.235652,0.000000,-75077.358804
2756.344410,11251.130318,5625.565159,-70940.443115
2756.346945,6809.894666,9178.553681,-72625.853210
2756.349481,1924.535449,2960.823768,-75537.016103
2756.352016,-2368.659014,1480.411884,-73698.386908
2756.354552,-1184.329507,-1480.411884,-71246.881314
2756.357087,1924.535449,148.041188,-72472.634111
2756.359622,2960.823768,4145.153275,-75383.797003
2756.362158,4737.318029,3701.029710,-76149.892501
2756.364693,7402.059420,6217.729913,-70327.566716
2756.367229,10955.047942,4589.276840,-71400.100414
2756.369764,8290.306550,9918.759623,-73391.948708
2756.372300,-592.164754,7254.018232,-77682.083497
2756.374835,-4589.276840,4589.276840,-74924.139704
2756.377370,-296.082377,-2960.823768,-72012.976812
2756.379906,11695.253884,2220.617826,-70634.004916
2756.382441,8734.430116,-888.247130,-75537.016103
2756.384977,-1924.535449,2368.659014,-74158.044206
2756.387512,-740.205942,10807.006753,-72625.853210
2756.390048,-7994.224174,-740.205942,-77222.426198
2756.392583,-10658.965565,-6513.812290,-75230.577904
2756.395118,-444.123565,-4145.153275,-68488.937521
2756.397654,7550.100608,-740.205942,-70634.004916
2756.400189,3404.947333,-7994.224174,-79673.931792
2756.402725,-4589.276840,-4145.153275,-75537.016103
2756.405260,-10807.006753,1332.370696,-68488.937521
2756.407795,-4293.194464,-888.247130,-74311.263306
2756.410331,2664.741391,-4885.359217,-77682.083497
2756.412866,6365.771101,7846.182985,-70634.004916
2756.415402,444.123565,2812.782580,-72932.291410
2756.417937,-2072.576638,-6809.894666,-77222.426198
2756.420473,-5921.647536,-9918.759623,-74617.701505
2756.423017,-2516.700203,4145.153275,-66956.746525
2756.425560,4885.359217,-296.082377,-74464.482406
2756.428104,-7105.977043,-6661.853478,-80133.589091
2756.430648,-1332.370696,8290.306550,-69867.909418
2756.433192,1036.288319,-1628.453072,-70021.128517
2756.435736,-4441.235652,-4589.276840,-75537.016103
2756.438280,-9622.677246,-16432.571912,-77988.521696
2756.440824,-3701.029710,888.247130,-68795.375720
2756.443368,-740.205942,-3552.988522,-74770.920605
2756.445912,888.247130,-2368.659014,-76915.987999
2756.448456,-4737.318029,-1480.411884,-72932.291410
2756.451000,-6661.853478,2812.782580,-69561.471218
2756.453544,-148.041188,1036.288319,-75230.577904
2756.456088,1628.453072,-2960.823768,-76915.987999
2756.458632,-740.205942,-2960.823768,-72166.195912
2756.461176,2368.659014,2368.659014,-70787.224015
2756.463720,5329.482782,-296.082377,-76456.330700
2756.466264,-888.247130,2072.576638,-75537.016103
2756.468808,2072.576638,9030.512492,-70021.128517
2756.471352,6957.935855,13027.624579,-71553.319513
2756.473896,9326.594869,740.205942,-78294.959896
2756.476439,6513.812290,5921.647536,-73545.167808
2756.478983,-1628.453072,3404.947333,-70021.128517
2756.481527,-3404.947333,-2664.741391,-75077.358804
2756.484071,2516.700203,-3404.947333,-76303.111601
2756.486615,6365.771101,7402.059420,-70787.224015
2756.489159,9770.718434,7698.141797,-72472.634111
2756.491703,2368.659014,1036.288319,-76609.549800
2756.494247,-2664.741391,6661.853478,-72625.853210
2756.496791,-296.082377,3997.112087,-70787.224015
2756.499335,3701.029710,-2220.617826,-74004.825107
2756.501879,148.041188,2664.741391,-76609.549800
2756.504423,6661.853478,7402.059420,-72166.195912
2756.506967,7698.141797,5033.400406,-71246.881314
2756.509511,11695.253884,8142.265362,-70634.004916
2756.512055,9474.636058,6809.894666,-74004.825107
2756.514599,444.123565,7846.182985,-75690.235202
2756.517143,-4293.194464,1332.370696,-76456.330700
2756.519687,3108.864956,2664.741391,-72932.291410
2756.522231,8290.306550,888.247130,-71706.538613
2756.524753,4293.194464,-3108.864956,-73391.948708
2756.527275,148.041188,1036.288319,-72779.072310
2756.529797,296.082377,13767.830521,-71859.757712
2756.532319,-10066.800811,-4293.194464,-78448.178995
2756.534841,-9918.759623,-6957.935855,-74770.920605
2756.537363,1776.494261,-3256.906145,-68642.156621
2756.539886,4737.318029,-4145.153275,-71859.757712
2756.542408,-296.082377,-8734.430116,-78907.836294
2756.544930,-7846.182985,-1036.288319,-74158.044206
2756.547452,-7105.977043,2812.782580,-70940.443115
2756.549974,-2516.700203,-3404.947333,-75690.235202
2756.552496,2664.741391,-592.164754,-74770.920605
2756.555018,2368.659014,2072.576638,-71400.100414
2756.557540,1480.411884,0.000000,-73851.606007
2756.560062,-6217.729913,-6365.771101,-77682.083497
2756.562585,-4441.235652,-7105.977043,-72932.291410
2756.565107,4145.153275,5477.523971,-69867.909418
2756.567629,2516.700203,-1036.288319,-75383.797003
2756.570151,-4441.235652,-3701.029710,-76762.768900
2756.572673,-3256.906145,2664.741391,-69101.813920
2756.575195,-2664.741391,-740.205942,-72472.634111
2756.577717,-6069.688724,-10510.924376,-76762.768900
2756.580239,-3701.029710,-11399.171507,-74311.263306
2756.582762,1184.329507,2664.741391,-69101.813920
2756.585284,592.164754,-4145.153275,-75537.016103
2756.587806,-4737.318029,-2516.700203,-77069.207099
2756.590328,-7994.224174,0.000000,-71859.757712
2756.592850,-1036.288319,4885.359217,-70940.443115
2756.595372,3849.070898,-2516.700203,-77682.083497
2756.597894,-1332.370696,-7550.100608,-74158.044206
2756.600416,6069.688724,7994.224174,-66956.746525
2756.602939,5625.565159,2368.659014,-75996.673402
2756.605461,-592.164754,-1480.411884,-78907.836294
2756.607983,-888.247130,6217.729913,-70787.224015
2756.610505,6069.688724,16580.613101,-67109.965625
2756.613027,6217.729913,-296.082377,-79673.931792
2756.615549,5329.482782,2960.823768,-77375.645298
2756.618071,3997.112087,7550.100608,-68335.718422
2756.620593,-1480.411884,-2368.659014,-74004.825107
2756.623115,-296.082377,-5921.647536,-79061.055394
2756.625649,2664.741391,4293.194464,-71400.100414
2756.628183,7254.018232,10658.965565,-70327.566716
2756.630716,3404.947333,4885.359217,-77835.302597
2756.633250,-444.123565,-740.205942,-76303.111601
2756.635783,740.205942,4441.235652,-68182.499322
2756.638317,6957.935855,1184.329507,-71246.881314
2756.640850,5181.441594,1184.329507,-79061.055394
2756.643384,4145.153275,6069.688724,-74464.482406
2756.645917,8290.306550,11547.212695,-68335.718422
2756.648451,10658.965565,6513.812290,-72779.072310
2756.650984,5477.523971,4589.276840,-76456.330700
2756.653518,1332.370696,6661.853478,-72779.072310
2756.656051,2220.617826,7105.977043,-73238.729609
2756.658585,7550.100608,2072.576638,-76915.987999
2756.661118,5773.606348,-1776.494261,-74464.482406
2756.663652,-1628.453072,-1628.453072,-69714.690318
2756.666186,1776.494261,5773.606348,-73238.729609
2756.668719,-1924.535449,888.247130,-77988.521696
2756.671253,-7254.018232,-1184.329507,-74311.263306
2756.673786,-1036.288319,-2072.576638,-70174.347617
2756.676320,4145.153275,-5625.565159,-73238.729609
2756.678853,-296.082377,-11547.212695,-77375.645298
2756.681387,-5773.606348,-444.123565,-72472.634111
2756.683920,-10362.883188,-444.123565,-73085.510509
2756.686454,-6217.729913,-1184.329507,-75537.016103
2756.688987,4145.153275,-1184.329507,-73085.510509
2756.691521,4885.359217,5329.482782,-68948.594820
2756.694054,-740.205942,-3404.947333,-75843.454302
2756.696588,-6217.729913,-5181.441594,-77528.864398
2756.699121,-5329.482782,296.082377,-73238.729609
2756.701655,-2516.700203,-3256.906145,-72932.291410
2756.704189,1036.288319,1924.535449,-74617.701505
2756.706722,1332.370696,-2516.700203,-75077.358804
2756.709256,-1332.370696,3997.112087,-70634.004916
2756.711789,-2812.782580,-5181.441594,-73391.948708
2756.714323,-6513.812290,-7254.018232,-75230.577904
2756.716856,-5625.565159,-5921.647536,-73085.510509
2756.719390,-1184.329507,-6957.935855,-73698.386908
2756.721923,1924.535449,-1332.370696,-73391.948708
2756.724457,-4293.194464,-5033.400406,-73085.510509
2756.727000,-5033.400406,3997.112087,-70021.128517
2756.729543,1628.453072,2368.659014,-74158.044206
2756.732086,3404.947333,1776.494261,-76303.111601
2756.734629,-3108.864956,-5773.606348,-74924.139704
2756.737172,4441.235652,3997.112087,-69408.252119
2756.739715,5477.523971,-1332.370696,-76915.987999
2756.742258,-2368.659014,2812.782580,-76303.111601
2756.744801,1332.370696,10658.965565,-69408.252119
2756.747344,5625.565159,10658.965565,-73238.729609
2756.749887,6661.853478,1332.370696,-78754.617194
2756.752430,1776.494261,4145.153275,-71706.538613
2756.754973,444.123565,7402.059420,-68948.594820
2756.757516,-296.082377,-3108.864956,-75537.016103
2756.760059,5329.482782,-3552.988522,-76456.330700
2756.762602,6513.812290,7994.224174,-70021.128517
2756.765145,3701.029710,5329.482782,-73238.729609
2756.767688,-148.041188,3404.947333,-76149.892501
2756.770231,-444.123565,2960.823768,-72472.634111
2756.772774,1036.288319,-592.164754,-70174.347617
2756.775317,5181.441594,2664.741391,-73085.510509
2756.777859,5033.400406,2220.617826,-77682.083497
2756.780402,9030.512492,8882.471304,-74004.825107
2756.782945,7698.141797,7402.059420,-71859.757712
2756.785488,6957.935855,7402.059420,-71400.100414
2756.788031,3108.864956,3552.988522,-74158.044206
2756.790574,296.082377,5477.523971,-73851.606007
2756.793117,8142.265362,6365.771101,-74158.044206
2756.795660,9030.512492,1332.370696,-75077.358804
2756.798203,444.123565,-4885.359217,-72779.072310
2756.800746,-296.082377,1184.329507,-69408.252119
2756.803289,-888.247130,5329.482782,-73851.606007
2756.805832,-8734.430116,-4293.194464,-78754.617194
2756.808375,-8142.265362,-1036.288319,-73698.386908
2756.810918,3997.112087,-4293.194464,-70787.224015
2756.813461,3256.906145,-9770.718434,-75843.454302
2756.816004,-4589.276840,-5181.441594,-74004.825107
2756.818547,-9474.636058,1332.370696,-71246.881314
2756.821090,-7402.059420,-888.247130,-74770.920605
2756.823633,-1332.370696,-3256.906145,-77835.302597
2756.826176,2812.782580,1332.370696,-71400.100414
2756.828727,1184.329507,2516.700203,-70174.347617
2756.831278,-2812.782580,-5033.400406,-75077.358804
2756.833829,-8882.471304,-7698.141797,-76303.111601
2756.836380,-2664.741391,6069.688724,-71706.538613
2756.838932,3552.988522,-1924.535449,-74311.263306
2756.841483,592.164754,-2516.700203,-75690.235202
2756.844034,-4145.153275,-1480.411884,-71400.100414
2756.846585,-6217.729913,740.205942,-69408.252119
2756.849136,-5477.523971,-7402.059420,-75996.673402
2756.851687,-2516.700203,-6957.935855,-76915.987999
2756.854238,740.205942,-1924.535449,-70940.443115
2756.856789,-888.247130,-5773.606348,-72472.634111
2756.859340,-6661.853478,-6069.688724,-74004.825107
2756.861891,-5181.441594,1184.329507,-72932.291410
2756.864442,5033.400406,9178.553681,-72319.415011
2756.866993,2072.576638,-444.123565,-77835.302597
2756.869544,740.205942,-2368.659014,-74158.044206
2756.872095,6957.935855,6661.853478,-67876.061123
2756.874646,4737.318029,-296.082377,-75077.358804
2756.877198,-2516.700203,-1924.535449,-78754.617194
2756.879749,-592.164754,8586.388927,-72012.976812
2756.882300,7846.182985,9918.759623,-71553.319513
2756.884851,9770.718434,1628.453072,-78448.178995
2756.887402,3701.029710,2960.823768,-73545.167808
2756.889953,1036.288319,10214.842000,-68335.718422
2756.892504,-1776.494261,-4145.153275,-76149.892501
2756.895055,2960.823768,-2516.700203,-79061.055394
2756.897606,6069.688724,2664.741391,-72166.195912
2756.900157,3552.988522,10807.006753,-69101.813920
2756.902708,3108.864956,0.000000,-75230.577904
2756.905259,-2960.823768,4737.318029,-73391.948708
2756.907810,-888.247130,5033.400406,-70174.347617
2756.910361,2664.741391,-1184.329507,-73545.167808
2756.912912,4293.194464,5921.647536,-75996.673402
2756.915464,5773.606348,3256.906145,-75537.016103
2756.918015,9622.677246,12879.583391,-71093.662214
2756.920566,5773.606348,5181.441594,-71093.662214
2756.923117,148.041188,7254.018232,-73238.729609
2756.925668,3849.070898,3997.112087,-74004.825107
2756.928219,9918.759623,7550.100608,-74311.263306
2756.930776,2072.576638,-3108.864956,-75996.673402
2756.933333,-4293.194464,-4885.359217,-72319.415011
2756.935890,592.164754,6069.688724,-68488.937521
2756.938448,-4589.276840,-3997.112087,-76149.892501
2756.941005,-6513.812290,-740.205942,-75690.235202
2756.943562,0.000000,296.082377,-71246.881314
2756.946119,3849.070898,-2072.576638,-72166.195912
2756.948676,-148.041188,-9622.677246,-76303.111601
2756.951233,-8734.430116,-2368.659014,-72625.853210
2756.953791,-8882.471304,2812.782580,-70634.004916
2756.956348,-1036.288319,-4885.359217,-78141.740796
2756.958905,4441.235652,148.041188,-75996.673402
2756.961462,7105.977043,3108.864956,-69101.813920
2756.964019,-592.164754,-1480.411884,-71400.100414
2756.966576,-8882.471304,-5181.441594,-76303.111601
2756.969134,-5625.565159,-2516.700203,-75690.235202
2756.971691,-1776.494261,2812.782580,-71400.100414
2756.974248,1776.494261,2072.576638,-74464.482406
2756.976805,888.247130,-4145.153275,-75077.358804
2756.979362,-7105.977043,1628.453072,-69561.471218
2756.981919,-7254.018232,-7550.100608,-72472.634111
2756.984477,-7550.100608,-7994.224174,-77069.207099
2756.987034,-3108.864956,-4441.235652,-74924.139704
2756.989591,-1628.453072,-2812.782580,-72472.634111
2756.992148,-5181.441594,-7698.141797,-72779.072310
2756.994705,-3404.947333,-3849.070898,-72932.291410
2756.997263,3552.988522,6809.894666,-71246.881314
2756.999820,2516.700203,3701.029710,-76149.892501
2757.002377,-1776.494261,-3108.864956,-75996.673402
2757.004934,5329.482782,9770.718434,-69255.033019
2757.007491,5625.565159,1184.329507,-73698.386908
2757.010048,740.205942,-3701.029710,-77375.645298
2757.012606,3701.029710,7698.141797,-71400.100414
2757.015163,6513.812290,13767.830521,-70327.566716
2757.017720,7698.141797,2664.741391,-77682.083497
2757.020277,4293.194464,1924.535449,-75690.235202
2757.022834,740.205942,7994.224174,-68948.594820
2757.025391,-296.082377,-740.205942,-74311.263306
2757.027949,2072.576638,444.123565,-77528.864398
2757.030506,7105.977043,4737.318029,-73085.510509
2757.033068,7698.141797,11251.130318,-70787.224015
2757.035631,592.164754,-4441.235652,-75690.235202
2757.038193,-3404.947333,296.082377,-74158.044206
2757.040755,2960.823768,3552.988522,-71246.881314
2757.043318,3552.988522,1924.535449,-75077.358804
2757.045880,4293.194464,1628.453072,-78141.740796
2757.048443,7994.224174,9918.759623,-72779.072310
2757.051005,9030.512492,9178.553681,-70940.443115
2757.053567,1628.453072,2812.782580,-74004.825107
2757.056130,-1184.329507,4293.194464,-72779.072310
2757.058692,5033.400406,11695.253884,-72932.291410
2757.061255,6365.771101,4589.276840,-77528.864398
2757.063817,-888.247130,-6217.729913,-76303.111601
2757.066379,888.247130,-444.123565,-69561.471218
2757.068942,1184.329507,3404.947333,-69408.252119
2757.071504,-6217.729913,-7105.977043,-79061.055394
2757.074067,-6513.812290,148.041188,-72932.291410
2757.076629,444.123565,4589.276840,-70940.443115
2757.079192,1628.453072,-7550.100608,-77222.426198
2757.081754,-2072.576638,-9918.759623,-76456.330700
2757.084316,-7994.224174,1924.535449,-66956.746525
2757.086879,-5921.647536,740.205942,-72166.195912
2757.089441,-1332.370696,-6809.894666,-79673.931792
2757.092004,2812.782580,740.205942,-75077.358804
2757.094566,5329.482782,5181.441594,-67722.842023
2757.097128,-3701.029710,-7105.977043,-76303.111601
2757.099691,-8586.388927,-5477.523971,-75077.358804
2757.102253,2368.659014,8438.347739,-70787.224015
2757.104816,4293.194464,1332.370696,-73851.606007
2757.107378,-1036.288319,-5921.647536,-77375.645298
2757.109940,-1776.494261,-444.123565,-72319.415011
2757.112503,-6809.894666,-2220.617826,-70021.128517
2757.115065,-9030.512492,-7402.059420,-74924.139704
2757.117628,-3997.112087,-7550.100608,-75690.235202
2757.120190,296.082377,-1184.329507,-71859.757712
2757.122753,-3108.864956,-7994.224174,-75230.577904
2757.125315,-3849.070898,-7254.018232,-74004.825107
2757.127877,2220.617826,6661.853478,-70480.785816
2757.130440,444.123565,4589.276840,-73698.386908
2757.133002,-3701.029710,-1480.411884,-77375.645298
2757.135569,3997.112087,5625.565159,-72779.072310
2757.138136,6217.729913,6957.935855,-71706.538613
2757.140703,2220.617826,-1332.370696,-76456.330700
2757.143270,1184.329507,-444.123565,-72472.634111
2757.145837,3404.947333,11843.295072,-69714.690318
2757.148404,6809.894666,4589.276840,-77682.083497
2757.150971,3108.864956,3404.947333,-77375.645298
2757.153538,1036.288319,6217.729913,-70174.347617
2757.156105,2960.823768,1332.370696,-72012.976812
2757.158672,3404.947333,-1036.288319,-77222.426198
2757.161239,3701.029710,740.205942,-74617.701505
2757.163806,4589.276840,12879.583391,-70940.443115
2757.166373,-1332.370696,-2960.823768,-75996.673402
2757.168940,-2812.782580,-740.205942,-73698.386908
2757.171507,4885.359217,6809.894666,-69867.909418
2757.174074,8438.347739,2664.741391,-74770.920605
2757.176640,8438.347739,6513.812290,-76915.987999
2757.179207,9178.553681,6513.812290,-73851.606007
2757.181774,5329.482782,10066.800811,-72012.976812
2757.184341,-1184.329507,888.247130,-74617.701505
2757.186908,740.205942,8438.347739,-73238.729609
2757.189475,7254.018232,7105.977043,-73698.386908
2757.192042,6365.771101,4589.276840,-75537.016103
2757.194609,-296.082377,-3404.947333,-74617.701505
2757.197176,1184.329507,2960.823768,-69408.252119
2757.199743,-6069.688724,-7254.018232,-74311.263306
2757.202310,-10362.883188,-7254.018232,-76762.768900
2757.204877,-3849.070898,740.205942,-72472.634111
2757.207444,2812.782580,1628.453072,-72472.634111
2757.210011,3256.906145,-3849.070898,-77069.207099
2757.212578,-3849.070898,-4145.153275,-73238.729609
2757.215145,-7402.059420,-592.164754,-68642.156621
2757.217712,-5033.400406,-4441.235652,-75996.673402
2757.220279,-1184.329507,-3108.864956,-77988.521696
2757.222846,-1924.535449,1924.535449,-72166.195912
2757.225413,-888.247130,444.123565,-70940.443115
2757.227980,-3108.864956,-3256.906145,-74004.825107
2757.230547,-2368.659014,-1776.494261,-73851.606007
2757.233114,2072.576638,8290.306550,-70940.443115
2757.235681,3108.864956,-740.205942,-75383.797003
2757.238251,-4441.235652,-1332.370696,-74617.701505
2757.240821,-5773.606348,-5329.482782,-72012.976812
2757.243391,-6217.729913,-5921.647536,-71859.757712
2757.245961,-3256.906145,-5477.523971,-74158.044206
2757.248530,-444.123565,-5477.523971,-74924.139704
2757.251100,-2072.576638,-5181.441594,-73698.386908
2757.253670,-3256.906145,-2960.823768,-73085.510509
2757.256240,1628.453072,2072.576638,-73085.510509
2757.258810,-444.123565,1628.453072,-74311.263306
2757.261380,-5181.441594,-1184.329507,-74770.920605
2757.263950,2960.823768,5773.606348,-71706.538613
2757.266520,8438.347739,3552.988522,-74924.139704
2757.269090,3404.947333,296.082377,-75537.016103
2757.271660,3701.029710,1480.411884,-71400.100414
2757.274230,3701.029710,10807.006753,-70174.347617
2757.276800,4145.153275,1332.370696,-78141.740796
2757.279370,2960.823768,5181.441594,-75383.797003
2757.281940,1924.535449,7846.182985,-70634.004916
2757.284510,888.247130,2072.576638,-72932.291410
2757.287080,2368.659014,-3108.864956,-76609.549800
2757.289650,1776.494261,2960.823768,-72625.853210
2757.292220,3404.947333,10658.965565,-73085.510509
2757.294790,-1036.288319,-3849.070898,-76762.768900
2757.297360,-3256.906145,444.123565,-72932.291410
2757.299930,4145.153275,4737.318029,-69561.471218
2757.302500,4145.153275,2812.782580,-73851.606007
2757.305070,7254.018232,2516.700203,-77528.864398
2757.307640,11991.336260,10807.006753,-71859.757712
2757.310210,7698.141797,12287.418637,-72472.634111
2757.312780,2220.617826,1924.535449,-74770.920605
2757.315350,3849.070898,8586.388927,-70787.224015
2757.317920,8438.347739,8290.306550,-72779.072310
2757.320490,2812.782580,1480.411884,-77069.207099
2757.323060,-444.123565,-5773.606348,-74770.920605
2757.325630,3849.070898,7105.977043,-68642.156621
2757.328200,-4589.276840,-7994.224174,-74158.044206
2757.330770,-8438.347739,-8290.306550,-75843.454302
2757.333340,-2368.659014,-1628.453072,-71400.100414
2757.335910,444.123565,1332.370696,-73238.729609
2757.338480,1480.411884,-5477.523971,-78294.959896
2757.341052,-3701.029710,-2812.782580,-72166.195912
2757.343625,-7254.018232,1776.494261,-66650.308326
2757.346197,-3701.029710,-5625.565159,-75843.454302
2757.348770,1184.329507,-4293.194464,-78754.617194
2757.351342,1332.370696,1332.370696,-71706.538613
2757.353915,-1924.535449,-888.247130,-70634.004916
2757.356487,-5625.565159,-296.082377,-75843.454302
2757.359060,-2220.617826,-6217.729913,-76609.549800
2757.361632,1628.453072,2368.659014,-71706.538613
2757.364205,-148.041188,-1776.494261,-76456.330700
2757.366777,-3256.906145,-7402.059420,-75843.454302
2757.369350,-7846.182985,740.205942,-71706.538613
2757.371922,-7698.141797,-11399.171507,-73698.386908
2757.374495,-5181.441594,-2812.782580,-73545.167808
2757.377067,-5033.400406,-8586.388927,-74924.139704
2757.379640,-1924.535449,-1776.494261,-71553.319513
2757.382212,2072.576638,-1924.535449,-73698.386908
2757.384785,1924.535449,3552.988522,-74924.139704
2757.387357,-5181.441594,-296.082377,-73698.386908
2757.389930,-1480.411884,740.205942,-70940.443115
2757.392502,7105.977043,8882.471304,-72625.853210
2757.395075,5477.523971,3404.947333,-77528.864398
2757.397647,3849.070898,3108.864956,-73698.386908
2757.400220,6957.935855,6809.894666,-69714.690318
2757.402792,5773.606348,3997.112087,-73391.948708
2757.405365,4589.276840,3404.947333,-76149.892501
2757.407937,1480.411884,5181.441594,-71553.319513
2757.410510,740.205942,4589.276840,-72166.195912
2757.413082,4589.276840,-2812.782580,-76149.892501
2757.415655,4885.359217,2960.823768,-72472.634111
2757.418227,5773.606348,6809.894666,-70787.224015
2757.420800,2516.700203,444.123565,-75843.454302
2757.423373,0.000000,148.041188,-74924.139704
2757.425945,-1924.535449,1776.494261,-72319.415011
2757.428518,888.247130,4441.235652,-72012.976812
2757.431090,6809.894666,0.000000,-77528.864398
2757.433663,12731.542202,10362.883188,-72166.195912
2757.436235,6809.894666,11695.253884,-72932.291410
2757.438808,2368.659014,3256.906145,-74464.482406
2757.441380,4293.194464,7402.059420,-73391.948708
2757.443954,3552.988522,6809.894666,-72625.853210
2757.446528,2220.617826,3849.070898,-75690.235202
2757.449102,-2072.576638,-7402.059420,-76456.330700
2757.451676,3849.070898,6809.894666,-68642.156621
2757.454250,-1924.535449,-5329.482782,-74004.825107
2757.456824,-8586.388927,-7254.018232,-75996.673402
2757.459398,-3256.906145,-1924.535449,-72012.976812
2757.461972,148.041188,444.123565,-72472.634111
2757.464546,-444.123565,-2516.700203,-78448.178995
2757.467120,-5625.565159,-3552.988522,-74004.825107
2757.469694,-6365.771101,1480.411884,-68642.156621
2757.472268,-3256.906145,-5033.400406,-73391.948708
2757.474842,2220.617826,-3108.864956,-77835.302597
2757.477416,3701.029710,-1628.453072,-73085.510509
2757.479991,-1924.535449,1036.288319,-69867.909418
2757.482565,-6957.935855,-2368.659014,-75690.235202
2757.485139,888.247130,2220.617826,-75383.797003
2757.487713,4293.194464,1480.411884,-72166.195912
2757.490287,2368.659014,1628.453072,-72779.072310
2757.492861,-1628.453072,-6513.812290,-74770.920605
2757.495435,-9178.553681,-740.205942,-73851.606007
2757.498009,-8438.347739,-11991.336260,-74617.701505
2757.500583,-5921.647536,-3108.864956,-72779.072310
2757.503157,-7846.182985,-11251.130318,-74311.263306
2757.505731,-148.041188,-444.123565,-72166.195912
2757.508305,6957.935855,3256.906145,-73698.386908
2757.510879,1776.494261,3108.864956,-75843.454302
2757.513453,-6661.853478,-1036.288319,-74004.825107
2757.516027,0.000000,6513.812290,-69255.033019
2757.518601,5921.647536,4441.235652,-74770.920605
2757.521175,3256.906145,-296.082377,-78907.836294
2757.523749,4441.235652,5181.441594,-71859.757712
2757.526323,6217.729913,10214.842000,-69255.033019
2757.528897,5477.523971,296.082377,-78141.740796
2757.531471,2812.782580,3701.029710,-75077.358804
2757.534045,1036.288319,9030.512492,-69101.813920
2757.536619,-1036.288319,4293.194464,-74158.044206
2757.539193,2812.782580,-3552.988522,-77528.864398
2757.541767,3404.947333,3849.070898,-71093.662214
2757.544341,5477.523971,10510.924376,-70174.347617
2757.546923,4589.276840,-3997.112087,-75996.673402
2757.549498,-2664.741391,592.164754,-74004.825107
2757.552074,888.247130,7550.100608,-70327.566716
2757.554649,5477.523971,-296.082377,-74617.701505
2757.557225,7105.977043,7254.018232,-75230.577904
2757.559801,9770.718434,7105.977043,-74617.701505
2757.562376,5921.647536,11399.171507,-70940.443115
2757.564952,6217.729913,5773.606348,-75383.797003
2757.567527,6661.853478,7846.182985,-72472.634111
2757.570103,4145.153275,5773.606348,-73851.606007
2757.572678,-2516.700203,-1628.453072,-75383.797003
2757.575254,2072.576638,4589.276840,-72012.976812
2757.577830,-4145.153275,-6365.771101,-74158.044206
2757.580405,-9178.553681,-5773.606348,-73698.386908
2757.582981,-4145.153275,-5625.565159,-73851.606007
2757.585556,444.123565,-444.123565,-73391.948708
2757.588132,0.000000,-1036.288319,-75383.797003
2757.590708,-5033.400406,148.041188,-73545.167808
2757.593283,-7105.977043,-3108.864956,-72319.415011
2757.595859,-3997.112087,-4885.359217,-73391.948708
2757.598434,3256.906145,-148.041188,-73085.510509
2757.601010,-2664.741391,-2960.823768,-74464.482406
2757.603586,148.041188,-2368.659014,-73085.510509
2757.606161,-6069.688724,-1628.453072,-73698.386908
2757.608737,-1480.411884,3108.864956,-73851.606007
2757.611312,2220.617826,-3256.906145,-73698.386908
2757.613888,2812.782580,3849.070898,-72166.195912
2757.616464,-2220.617826,-4293.194464,-74158.044206
2757.619039,-9326.594869,-2812.782580,-74311.263306
2757.621615,-8438.347739,-12139.377449,-74464.482406
2757.624190,-6365.771101,-3552.988522,-70634.004916
2757.626766,-6809.894666,-10214.842000,-74311.263306
2757.629343,592.164754,-2516.700203,-74004.825107
2757.631919,7994.224174,6957.935855,-72472.634111
2757.634496,-296.082377,3552.988522,-74464.482406
2757.637073,-5625.565159,-1480.411884,-74617.701505
2757.639650,3256.906145,8734.430116,-70787.224015
2757.642226,7254.018232,3701.029710,-74311.263306
2757.644803,2072.576638,1480.411884,-77988.521696
2757.647380,4145.153275,3997.112087,-73238.729609
2757.649956,6661.853478,8290.306550,-70787.224015
2757.652533,4737.318029,2664.741391,-76609.549800
2757.655110,2516.700203,2812.782580,-74770.920605
2757.657687,2220.617826,9474.636058,-70327.566716
2757.660263,0.000000,3108.864956,-73698.386908
2757.662840,592.164754,-1924.535449,-77375.645298
2757.665417,5181.441594,2220.617826,-73085.510509
2757.667993,2516.700203,4145.153275,-70480.785816
2757.670570,2516.700203,1924.535449,-74004.825107
2757.673147,3552.988522,1776.494261,-74770.920605
2757.675724,592.164754,3552.988522,-72166.195912
2757.678300,6661.853478,3404.947333,-75077.358804
2757.680877,6513.812290,7254.018232,-74311.263306
2757.683454,6661.853478,11991.336260,-73085.510509
2757.686030,4885.359217,3404.947333,-73545.167808
2757.688607,8290.306550,14063.912898,-71859.757712
2757.691184,6513.812290,6217.729913,-75383.797003
2757.693761,-1480.411884,2664.741391,-73085.510509
2757.696337,0.000000,-2664.741391,-73085.510509
2757.698914,2368.659014,888.247130,-73545.167808
2757.701491,-7994.224174,-13767.830521,-76915.987999
2757.704067,-4589.276840,-3552.988522,-71246.881314
2757.706644,1184.329507,1036.288319,-71093.662214
2757.709221,1924.535449,-2812.782580,-76149.892501
2757.711798,-888.247130,-3849.070898,-76915.987999
2757.714374,-7254.018232,2664.741391,-70174.347617
2757.716951,-8142.265362,-592.164754,-72166.195912
2757.719528,-4885.359217,-9770.718434,-77222.426198
2757.722104,1036.288319,-2072.576638,-72625.853210
2757.724681,888.247130,1480.411884,-70940.443115
2757.727258,-444.123565,-296.082377,-75077.358804
2757.729835,-3849.070898,-3849.070898,-74924.139704
2757.732412,-5625.565159,4885.359217,-71706.538613
2757.734990,444.123565,-4145.153275,-73238.729609
2757.737567,-3849.070898,-1776.494261,-73391.948708
2757.740145,-6809.894666,-1776.494261,-73698.386908
2757.742722,-6513.812290,-6513.812290,-74004.825107
2757.745300,-6217.729913,-3404.947333,-71093.662214
2757.747877,-7994.224174,-12879.583391,-73085.510509
2757.750455,-1924.535449,-3552.988522,-72319.415011
2757.753033,4293.194464,-1480.411884,-77069.207099
2757.755610,2516.700203,8290.306550,-75690.235202
2757.758188,-6069.688724,-592.164754,-72625.853210
2757.760765,2812.782580,7698.141797,-69561.471218
2757.763343,8586.388927,2220.617826,-73698.386908
2757.765920,7846.182985,3701.029710,-76456.330700
2757.768498,2664.741391,4145.153275,-72625.853210
2757.771075,3256.906145,8734.430116,-72166.195912
2757.773653,4145.153275,-1480.411884,-77528.864398
2757.776231,4293.194464,4885.359217,-73085.510509
2757.778808,5329.482782,10214.842000,-69101.813920
2757.781386,3108.864956,3997.112087,-75077.358804
2757.783963,1184.329507,-1924.535449,-77988.521696
2757.786541,5181.441594,3997.112087,-72319.415011
2757.789118,1036.288319,3404.947333,-71400.100414
2757.791696,-2072.576638,-3108.864956,-75383.797003
2757.794273,2072.576638,4145.153275,-72319.415011
2757.796851,4737.318029,7402.059420,-72166.195912
2757.799429,9918.759623,592.164754,-76303.111601
2757.802006,8438.347739,7994.224174,-72932.291410
2757.804584,5921.647536,8142.265362,-72932.291410
2757.807161,1628.453072,7698.141797,-74770.920605
2757.809739,3256.906145,9326.594869,-74158.044206
2757.812316,5921.647536,10214.842000,-72779.072310
2757.814894,148.041188,444.123565,-73545.167808
2757.817471,2960.823768,-1628.453072,-73545.167808
2757.820049,740.205942,-2812.782580,-73085.510509
2757.822627,-8734.430116,-10362.883188,-75230.577904
2757.825204,-8438.347739,-7402.059420,-72779.072310
2757.827782,-3552.988522,-1628.453072,-72472.634111
2757.830359,2960.823768,-444.123565,-74617.701505
2757.832937,592.164754,0.000000,-74311.263306
2757.835514,-2516.700203,3552.988522,-71246.881314
2757.838092,-5773.606348,-3849.070898,-73085.510509
2757.840670,-5329.482782,-6365.771101,-74617.701505
2757.843247,-296.082377,-3849.070898,-74311.263306
2757.845825,740.205942,-2368.659014,-73698.386908
2757.848402,-1776.494261,-1776.494261,-73545.167808
2757.850980,740.205942,2072.576638,-74004.825107
2757.853557,2220.617826,-1184.329507,-73238.729609
2757.856135,1036.288319,-1184.329507,-71859.757712
2757.858713,-1480.411884,-2368.659014,-73851.606007
2757.861290,-7105.977043,-3108.864956,-75996.673402
2757.863868,-11695.253884,-11695.253884,-76762.768900
2757.866445,-7402.059420,-5477.523971,-69714.690318
2757.869023,-2664.741391,-8734.430116,-72012.976812
2757.871600,3997.112087,-1332.370696,-74311.263306
2757.874178,7994.224174,2960.823768,-75383.797003
2757.876756,-2368.659014,3404.947333,-75077.358804
2757.879333,-8290.306550,296.082377,-72625.853210
2757.881911,1628.453072,10955.047942,-70021.128517
2757.884488,7254.018232,2072.576638,-75996.673402
2757.887066,5329.482782,2072.576638,-75537.016103
2757.889644,8438.347739,5033.400406,-71859.757712
2757.892221,4441.235652,3701.029710,-73085.510509
2757.894799,2812.782580,3552.988522,-75537.016103
2757.897376,-592.164754,3108.864956,-73545.167808
2757.899954,1332.370696,7105.977043,-70940.443115
2757.902531,4737.318029,888.247130,-74924.139704
2757.905109,4885.359217,2516.700203,-75996.673402
2757.907687,2812.782580,7105.977043,-71553.319513
2757.910264,1924.535449,-3552.988522,-73391.948708
2757.912842,-2516.700203,444.123565,-73698.386908
2757.915419,-888.247130,5033.400406,-73851.606007
2757.917997,5625.565159,740.205942,-75230.577904
2757.920574,10214.842000,9918.759623,-72472.634111
2757.923152,10066.800811,7994.224174,-74158.044206
2757.925730,7846.182985,9178.553681,-73698.386908
2757.928307,5181.441594,8142.265362,-73085.510509
2757.930885,6809.894666,11399.171507,-71553.319513
2757.933462,-888.247130,1332.370696,-75383.797003
2757.936040,-1628.453072,-2368.659014,-74004.825107
2757.938618,5329.482782,3108.864956,-71706.538613
2757.941196,-3701.029710,-10955.047942,-75537.016103
2757.943773,-6365.771101,-9030.512492,-74004.825107
2757.946351,-2664.741391,-2368.659014,-70327.566716
2757.948929,-888.247130,-888.247130,-74004.825107
2757.951507,-2072.576638,-444.123565,-76609.549800
2757.954085,-3997.112087,1776.494261,-73545.167808
2757.956663,-7402.059420,-2368.659014,-71400.100414
2757.959241,-4737.318029,-4737.318029,-74004.825107
2757.961818,2516.700203,-4885.359217,-74158.044206
2757.964396,2072.576638,-1480.411884,-73238.729609
2757.966974,-2812.782580,-2960.823768,-72932.291410
2757.969552,-2220.617826,0.000000,-76149.892501
2757.972130,-2516.700203,888.247130,-73545.167808
2757.974708,-1184.329507,-592.164754,-71246.881314
2757.977286,-1184.329507,-1480.411884,-73085.510509
2757.979863,-5181.441594,-5329.482782,-74924.139704
2757.982441,-9326.594869,-7994.224174,-74004.825107
2757.985019,-11695.253884,-7994.224174,-71859.757712
2757.987597,-6957.935855,-11991.336260,-73851.606007
2757.990175,1628.453072,-1184.329507,-73851.606007
2757.992753,7254.018232,3997.112087,-74311.263306
2757.995331,-2220.617826,3552.988522,-75843.454302
2757.997908,-2072.576638,2072.576638,-72625.853210
2758.000486,4589.276840,9622.677246,-71093.662214
2758.003064,3997.112087,740.205942,-75996.673402
2758.005642,2960.823768,2072.576638,-75843.454302
2758.008220,5477.523971,5477.523971,-72472.634111
2758.010798,5921.647536,1332.370696,-75230.577904
2758.013376,4441.235652,6809.894666,-74924.139704
2758.015953,2516.700203,5773.606348,-71400.100414
2758.018531,4293.194464,6365.771101,-70940.443115
2758.021109,4145.153275,-592.164754,-77069.207099
2758.023687,-148.041188,5181.441594,-75690.235202
2758.026265,2664.741391,3701.029710,-72625.853210
2758.028843,0.000000,-4589.276840,-73391.948708
2758.031421,4885.359217,4441.235652,-72779.072310
2758.033998,6809.894666,2664.741391,-74004.825107
2758.036576,7698.141797,6217.729913,-72012.976812
2758.039154,8142.265362,7105.977043,-75077.358804
2758.041731,4737.318029,5625.565159,-76149.892501
2758.044309,5773.606348,11251.130318,-73851.606007
2758.046886,6809.894666,10066.800811,-71093.662214
2758.049464,3256.906145,8290.306550,-72625.853210
2758.052041,-2368.659014,-5625.565159,-75996.673402
2758.054619,4589.276840,2960.823768,-72166.195912
2758.057196,-296.082377,-3552.988522,-74464.482406
2758.059773,-9474.636058,-7698.141797,-75077.358804
2758.062351,-5477.523971,-9326.594869,-72166.195912
2758.064928,740.205942,1036.288319,-70327.566716
2758.067506,2664.741391,0.000000,-77222.426198
2758.070083,-592.164754,1628.453072,-75077.358804
2758.072660,-5033.400406,1184.329507,-71706.538613
2758.075238,-6957.935855,-5625.565159,-73545.167808
2758.077815,-6661.853478,-5921.647536,-75690.235202
2758.080393,-1332.370696,-4145.153275,-72932.291410
2758.082970,444.123565,-1332.370696,-72779.072310
2758.085547,-1776.494261,3701.029710,-75537.016103
2758.088125,2220.617826,-296.082377,-74311.263306
2758.090702,148.041188,-2368.659014,-71093.662214
2758.093280,-2960.823768,-1184.329507,-71553.319513
2758.095857,-8290.306550,-6513.812290,-76609.549800
2758.098435,-12583.501014,-5625.565159,-76456.330700
2758.101012,-9326.594869,-9770.718434,-72012.976812
2758.103589,-6957.935855,-7698.141797,-70940.443115
2758.106167,3701.029710,-5181.441594,-74004.825107
2758.108744,7550.100608,3701.029710,-74464.482406
2758.111322,-3552.988522,4145.153275,-75843.454302
2758.113899,-7698.141797,3552.988522,-74311.263306
2758.116476,2516.700203,11103.089130,-70634.004916
2758.119054,6809.894666,592.164754,-74770.920605
2758.121631,8290.306550,3701.029710,-73851.606007
2758.124209,7550.100608,2368.659014,-72319.415011
2758.126786,7254.018232,9918.759623,-72166.195912
2758.129364,1332.370696,444.123565,-77682.083497
2758.131941,-444.123565,5625.565159,-72932.291410
2758.134518,4293.194464,5033.400406,-70480.785816
2758.137096,5329.482782,3256.906145,-72932.291410
2758.139673,5773.606348,2072.576638,-75537.016103
2758.142251,5477.523971,6513.812290,-73238.729609
2758.144828,592.164754,-1924.535449,-72779.072310
2758.147405,-888.247130,1776.494261,-73238.729609
2758.149982,-740.205942,1924.535449,-73085.510509
2758.152559,5033.400406,6365.771101,-74158.044206
2758.155137,13915.871710,7698.141797,-74617.701505
2758.157714,9178.553681,9622.677246,-74311.263306
2758.160291,9918.759623,12139.377449,-73238.729609
2758.162868,4441.235652,7550.100608,-73085.510509
2758.165445,-1184.329507,6069.688724,-72472.634111
2758.168022,-6217.729913,-4293.194464,-74158.044206
2758.170600,3701.029710,4441.235652,-72932.291410
2758.173177,1036.288319,-5329.482782,-75383.797003
2758.175754,-5181.441594,-9622.677246,-74924.139704
2758.178331,-4441.235652,-9918.759623,-72166.195912
2758.180908,-2368.659014,-2220.617826,-72012.976812
2758.183486,-2664.741391,-592.164754,-76762.768900
2758.186063,-3404.947333,2812.782580,-75077.358804
2758.188640,-6809.894666,888.247130,-72625.853210
2758.191217,-3701.029710,-3552.988522,-73085.510509
2758.193794,148.041188,-6513.812290,-73238.729609
2758.196372,2072.576638,-888.247130,-71093.662214
2758.198949,888.247130,-4737.318029,-73238.729609
2758.201526,-1480.411884,444.123565,-75230.577904
2758.204103,-3256.906145,2960.823768,-73851.606007
2758.206680,-444.123565,-4145.153275,-72012.976812
2758.209258,-2516.700203,-592.164754,-70940.443115
2758.211835,-4885.359217,-6957.935855,-76303.111601
2758.214412,-7105.977043,-3108.864956,-74770.920605
2758.216989,-12287.418637,-10658.965565,-74464.482406
2758.219566,-5033.400406,-9474.636058,-70480.785816
2758.222144,2516.700203,-6513.812290,-72472.634111
2758.224721,8142.265362,6365.771101,-74617.701505
2758.227298,-3701.029710,3404.947333,-75843.454302
2758.229875,0.000000,10066.800811,-71400.100414
2758.232452,7846.182985,7402.059420,-73545.167808
2758.235030,6069.688724,592.164754,-74311.263306
2758.237607,5181.441594,2812.782580,-72625.853210
2758.240184,6365.771101,5773.606348,-71706.538613
2758.242761,3404.947333,3701.029710,-76915.987999
2758.245338,3256.906145,2368.659014,-77375.645298
2758.247914,2220.617826,8734.430116,-70021.128517
2758.250491,5181.441594,6069.688724,-70634.004916
2758.253067,3108.864956,-2664.741391,-77682.083497
2758.255643,1924.535449,3404.947333,-74770.920605
2758.258219,740.205942,3108.864956,-73698.386908
2758.260795,-740.205942,-3701.029710,-74617.701505
2758.263371,1628.453072,1628.453072,-73238.729609
2758.265948,4885.359217,6217.729913,-71553.319513
2758.268524,8734.430116,2220.617826,-74311.263306
2758.271100,11695.253884,10807.006753,-73085.510509
2758.273676,6513.812290,11843.295072,-73545.167808
2758.276252,5477.523971,10362.883188,-74464.482406
2758.278828,1924.535449,5329.482782,-74004.825107
2758.281405,-4885.359217,-1036.288319,-71859.757712
2758.283981,2664.741391,592.164754,-70327.566716
2758.286557,5181.441594,444.123565,-76609.549800
2758.289133,-2220.617826,-12287.418637,-77682.083497
2758.291709,-7105.977043,-6513.812290,-71553.319513
2758.294285,-2812.782580,-1480.411884,-70174.347617
2758.296862,-3108.864956,-5033.400406,-77528.864398
2758.299438,-2220.617826,740.205942,-74311.263306
2758.302014,-1776.494261,7254.018232,-70787.224015
2758.304590,-2812.782580,-1036.288319,-73698.386908
2758.307166,-740.205942,-7994.224174,-75996.673402
2758.309742,-592.164754,-3997.112087,-71553.319513
2758.312318,0.000000,-1628.453072,-72166.195912
2758.314895,-2516.700203,-7994.224174,-78294.959896
2758.317471,-3849.070898,5033.400406,-74770.920605
2758.320047,2960.823768,444.123565,-71859.757712
2758.322623,-444.123565,-7105.977043,-72319.415011
2758.325199,-7105.977043,-5477.523971,-75537.016103
2758.327775,-8882.471304,-10214.842000,-75690.235202
2758.330352,-14211.954086,-2220.617826,-72625.853210
2758.332928,-10362.883188,-12583.501014,-74158.044206
2758.335504,3256.906145,-5033.400406,-72625.853210
2758.338080,9030.512492,888.247130,-72625.853210
2758.340656,592.164754,4145.153275,-75690.235202
2758.343232,-4589.276840,3997.112087,-74158.044206
2758.345809,3701.029710,13619.789333,-71859.757712
2758.348385,4293.194464,2368.659014,-75996.673402
2758.350960,3404.947333,-888.247130,-73851.606007
2758.353535,7550.100608,3701.029710,-70174.347617
2758.356111,5625.565159,7550.100608,-73238.729609
2758.358686,6513.812290,3849.070898,-77682.083497
2758.361261,1924.535449,3108.864956,-73698.386908
2758.363836,5477.523971,8290.306550,-68642.156621
2758.366412,3701.029710,3404.947333,-73545.167808
2758.368987,2368.659014,-888.247130,-77682.083497
2758.371562,3849.070898,1480.411884,-72319.415011
2758.374138,-296.082377,2664.741391,-73851.606007
2758.376713,2664.741391,296.082377,-74311.263306
2758.379288,5033.400406,2368.659014,-73238.729609
2758.381863,9178.553681,7254.018232,-71706.538613
2758.384439,10807.006753,6069.688724,-74464.482406
2758.387014,6513.812290,16432.571912,-74464.482406
2758.389589,6957.935855,7846.182985,-74924.139704
2758.392165,3997.112087,10362.883188,-71859.757712
2758.394740,-4885.359217,-8734.430116,-74004.825107
2758.397315,3108.864956,2072.576638,-69714.690318
2758.399891,2220.617826,-2960.823768,-74924.139704
2758.402466,-7994.224174,-9030.512492,-78141.740796
2758.405041,-7846.182985,-10066.800811,-73698.386908
2758.407616,-3701.029710,-740.205942,-70021.128517
2758.410192,-888.247130,-2664.741391,-74158.044206
2758.412767,-3108.864956,-1776.494261,-76456.330700
2758.415342,-4293.194464,5773.606348,-70787.224015
2758.417918,-5329.482782,-4293.194464,-75537.016103
2758.420493,-3256.906145,-8290.306550,-76303.111601
2758.423068,-444.123565,-3552.988522,-71553.319513
2758.425643,1776.494261,-888.247130,-70940.443115
2758.428219,2220.617826,2220.617826,-75843.454302
2758.430794,2516.700203,-2812.782580,-75537.016103
2758.433369,-1036.288319,2516.700203,-71093.662214
2758.435945,-3997.112087,-5773.606348,-71400.100414
2758.438520,-10066.800811,-7105.977043,-76915.987999
2758.441095,-13915.871710,-10510.924376,-76303.111601
2758.443670,-7254.018232,-7402.059420,-72012.976812
2758.446246,1184.329507,-6809.894666,-72472.634111
2758.448821,9622.677246,-592.164754,-75537.016103
2758.451396,1924.535449,1924.535449,-74004.825107
2758.453971,-6661.853478,5773.606348,-73085.510509
2758.456546,148.041188,10214.842000,-73545.167808
2758.459121,3108.864956,5477.523971,-76149.892501
2758.461696,6661.853478,1924.535449,-74464.482406
2758.464271,8586.388927,5625.565159,-69867.909418
2758.466845,8734.430116,5033.400406,-73085.510509
2758.469420,2812.782580,-592.164754,-78294.959896
2758.471995,444.123565,6809.894666,-72472.634111
2758.474570,592.164754,5625.565159,-71400.100414
2758.477145,3256.906145,3404.947333,-74464.482406
2758.479720,6217.729913,2220.617826,-74158.044206
2758.482294,2516.700203,2812.782580,-72779.072310
2758.484869,296.082377,2072.576638,-73545.167808
2758.487444,2072.576638,-592.164754,-75537.016103
2758.490019,1776.494261,3849.070898,-73545.167808
2758.492594,5921.647536,5329.482782,-73238.729609
2758.495169,9770.718434,6957.935855,-72779.072310
2758.497744,9178.553681,12287.418637,-73085.510509
2758.500318,12583.501014,13323.706956,-74311.263306
2758.502893,4737.318029,10955.047942,-74311.263306
2758.505468,-5625.565159,-2812.782580,-72472.634111
2758.508043,-592.164754,-1776.494261,-70787.224015
2758.510618,1480.411884,148.041188,-73698.386908
2758.513193,-5625.565159,-13323.706956,-77988.521696
2758.515767,-5477.523971,-5329.482782,-70634.004916
2758.518342,-888.247130,-740.205942,-71400.100414
2758.520917,296.082377,-4589.276840,-76303.111601
2758.523492,-3256.906145,-2664.741391,-74770.920605
2758.526067,-4441.235652,6365.771101,-70174.347617
2758.528642,-7402.059420,-2072.576638,-74158.044206
2758.531217,-3849.070898,-6809.894666,-77528.864398
2758.533791,-1628.453072,-5033.400406,-72472.634111
2758.536366,592.164754,-1332.370696,-69714.690318
2758.538941,888.247130,-1480.411884,-75843.454302
2758.541516,-888.247130,3108.864956,-75690.235202
2758.544091,-3404.947333,-1036.288319,-71553.319513
2758.546666,-5477.523971,148.041188,-71706.538613
2758.549240,-6661.853478,-12731.542202,-76149.892501
2758.551815,-11103.089130,-7402.059420,-73238.729609
2758.554390,-9030.512492,-7994.224174,-72625.853210
2758.556935,-2812.782580,-7994.224174,-72625.853210
2758.559480,8290.306550,-2220.617826,-74004.825107
2758.562025,-296.082377,-1628.453072,-75383.797003
2758.564570,-4885.359217,5773.606348,-72166.195912
2758.567115,592.164754,13175.665768,-72932.291410
2758.569661,5329.482782,7105.977043,-76149.892501
2758.572206,7254.018232,3404.947333,-74464.482406
2758.574751,8734.430116,1776.494261,-70634.004916
2758.577296,8142.265362,5477.523971,-70787.224015
2758.579841,3997.112087,0.000000,-76609.549800
2758.582387,1628.453072,7698.141797,-75077.358804
2758.584932,2960.823768,5181.441594,-72319.415011
2758.587477,2812.782580,1184.329507,-73085.510509
2758.590022,6365.771101,888.247130,-74158.044206
2758.592567,2664.741391,3849.070898,-71859.757712
2758.595112,1332.370696,-1776.494261,-75230.577904
2758.597658,-740.205942,2960.823768,-74770.920605
2758.600203,3701.029710,1776.494261,-75690.235202
2758.602748,5329.482782,4885.359217,-72012.976812
2758.605293,10214.842000,7105.977043,-72166.195912
2758.607838,10362.883188,10214.842000,-73545.167808
2758.610383,9918.759623,16284.530724,-75230.577904
2758.612929,-1480.411884,4589.276840,-74464.482406
2758.615474,-6069.688724,592.164754,-71400.100414
2758.618019,-1776.494261,-3849.070898,-72012.976812
2758.620564,592.164754,-4737.318029,-75230.577904
2758.623109,-4293.194464,-13619.789333,-76456.330700
2758.625654,-4885.359217,-2368.659014,-70634.004916
2758.628200,-1924.535449,-3108.864956,-72625.853210
2758.630745,-296.082377,-3701.029710,-75843.454302
2758.633290,-2516.700203,-2072.576638,-72779.072310
2758.635835,-8438.347739,4589.276840,-71246.881314
2758.638380,-3701.029710,-1628.453072,-75996.673402
2758.640926,-1036.288319,-7846.182985,-75996.673402
2758.643471,-296.082377,-2072.576638,-71093.662214
2758.646016,3552.988522,1776.494261,-70787.224015
2758.648561,2368.659014,-1628.453072,-76456.330700
2758.651106,-1480.411884,1776.494261,-75690.235202
2758.653651,-888.247130,-296.082377,-70940.443115
2758.656197,-6217.729913,-2072.576638,-71706.538613
2758.658747,-8882.471304,-8734.430116,-76303.111601
2758.661297,-9178.553681,-10807.006753,-74770.920605
2758.663847,-8882.471304,-8290.306550,-71093.662214
2758.666398,4145.153275,-5033.400406,-73238.729609
2758.668948,7105.977043,740.205942,-75690.235202
2758.671498,-1628.453072,1184.329507,-74924.139704
2758.674049,-3552.988522,6809.894666,-71400.100414
2758.676599,3108.864956,14804.118840,-73238.729609
2758.679149,3552.988522,4293.194464,-77375.645298
2758.681699,6661.853478,4885.359217,-72625.853210
2758.684250,7994.224174,592.164754,-70480.785816
2758.686800,4145.153275,2072.576638,-75077.358804
2758.689350,3552.988522,2664.741391,-77069.207099
2758.691901,148.041188,7402.059420,-73085.510509
2758.694451,2368.659014,7698.141797,-71859.757712
2758.697001,740.205942,-1628.453072,-74311.263306
2758.699551,2812.782580,3997.112087,-73545.167808
2758.702102,3404.947333,3552.988522,-72319.415011
2758.704652,148.041188,-888.247130,-75383.797003
2758.707202,-2812.782580,4885.359217,-75077.358804
2758.709753,8438.347739,3404.947333,-73545.167808
2758.712303,8734.430116,6365.771101,-71553.319513
2758.714853,13175.665768,11991.336260,-72779.072310
2758.717403,11695.253884,11991.336260,-75996.673402
2758.719954,4589.276840,13027.624579,-74004.825107
2758.722504,-4885.359217,740.205942,-73391.948708
2758.725054,-740.205942,1332.370696,-70634.004916
2758.727604,3256.906145,-6957.935855,-74004.825107
2758.730155,-4145.153275,-10510.924376,-75843.454302
2758.732705,-6217.729913,-8290.306550,-73391.948708
2758.735255,-444.123565,-296.082377,-71859.757712
2758.737806,-1628.453072,-3552.988522,-75996.673402
2758.740356,-1184.329507,-1332.370696,-74464.482406
2758.742906,-3849.070898,4293.194464,-70787.224015
2758.745456,-6217.729913,-740.205942,-73391.948708
2758.748007,-4589.276840,-5329.482782,-76915.987999
2758.750557,-888.247130,-4441.235652,-74464.482406
2758.753107,592.164754,-2664.741391,-70940.443115
2758.755658,740.205942,2220.617826,-74311.263306
2758.758208,-2220.617826,-4589.276840,-75996.673402
2758.760763,-2664.741391,2812.782580,-73085.510509
2758.763317,-4589.276840,-4441.235652,-71859.757712
2758.765872,-8734.430116,-5625.565159,-74158.044206
2758.768427,-13027.624579,-15396.283594,-76762.768900
2758.770981,-9918.759623,-8142.265362,-72625.853210
2758.773536,1480.411884,-8142.265362,-72472.634111
2758.776091,4737.318029,-592.164754,-75537.016103
2758.778646,-2516.700203,2516.700203,-74311.263306
2758.781200,-3108.864956,6661.853478,-72166.195912
2758.783755,5477.523971,15840.407159,-72625.853210
2758.786310,3552.988522,2664.741391,-77682.083497
2758.788864,6957.935855,5921.647536,-73545.167808
2758.791419,7402.059420,2960.823768,-68948.594820
2758.793974,8734.430116,5033.400406,-72625.853210
2758.796529,5181.441594,-1036.288319,-77222.426198
2758.799083,3108.864956,10066.800811,-72932.291410
2758.801638,-296.082377,6365.771101,-72779.072310
2758.804193,5625.565159,296.082377,-75383.797003
2758.806747,2368.659014,-444.123565,-74158.044206
2758.809302,2220.617826,4145.153275,-70940.443115
2758.811857,2220.617826,740.205942,-74464.482406
2758.814412,2812.782580,3849.070898,-77988.521696
2758.816966,7550.100608,4737.318029,-73851.606007
2758.819521,8438.347739,4737.318029,-71246.881314
2758.822076,10214.842000,11843.295072,-72779.072310
2758.824630,12435.459826,14656.077652,-75843.454302
2758.827185,1036.288319,10214.842000,-74311.263306
2758.829740,-6069.688724,740.205942,-72932.291410
2758.832295,444.123565,-3849.070898,-72472.634111
2758.834849,-592.164754,-7994.224174,-74617.701505
2758.837404,-3701.029710,-12731.542202,-74464.482406
2758.839959,-2516.700203,-3404.947333,-72166.195912
2758.842513,-1184.329507,-3552.988522,-74158.044206
2758.845068,-1184.329507,-148.041188,-75996.673402
2758.847623,-4441.235652,888.247130,-71706.538613
2758.850177,-7254.018232,3404.947333,-71400.100414
2758.852732,-5773.606348,-4145.153275,-76149.892501
2758.855287,-2368.659014,-7105.977043,-75690.235202
2758.857842,1480.411884,0.000000,-71553.319513
2758.860396,1776.494261,1776.494261,-71706.538613
2758.862954,3108.864956,-1628.453072,-74924.139704
2758.865512,-2960.823768,-3256.906145,-74770.920605
2758.868069,-3404.947333,1628.453072,-70940.443115
2758.870627,-6957.935855,-3849.070898,-72319.415011
2758.873185,-10807.006753,-9474.636058,-75537.016103
2758.875742,-7846.182985,-12731.542202,-74924.139704
2758.878300,-148.041188,-5921.647536,-71093.662214
2758.880858,7846.182985,-3108.864956,-73391.948708
2758.883415,1776.494261,444.123565,-76915.987999
2758.885973,-6957.935855,2220.617826,-74004.825107
2758.888530,2960.823768,19245.354492,-70634.004916
2758.891088,4885.359217,6661.853478,-76609.549800
2758.893646,5477.523971,3256.906145,-75996.673402
2758.896203,7698.141797,3997.112087,-69101.813920
2758.898761,7402.059420,5181.441594,-71400.100414
2758.901319,1776.494261,-2516.700203,-78294.959896
2758.903876,740.205942,5625.565159,-74770.920605
2758.906434,1628.453072,6069.688724,-72319.415011
2758.908992,1480.411884,5921.647536,-72625.853210
2758.911549,6069.688724,-888.247130,-73851.606007
2758.914107,1332.370696,6661.853478,-71553.319513
2758.916665,3552.988522,592.164754,-74004.825107
2758.919222,2072.576638,-1036.288319,-75690.235202
2758.921780,1924.535449,10066.800811,-74158.044206
2758.924338,9326.594869,1628.453072,-73545.167808
2758.926895,13027.624579,13471.748144,-70634.004916
2758.929453,14211.954086,13027.624579,-73851.606007
2758.932011,5625.565159,15100.201217,-74158.044206
2758.934568,-6513.812290,-1036.288319,-75843.454302
2758.937126,-592.164754,888.247130,-70787.224015
2758.939684,2072.576638,-2664.741391,-72932.291410
2758.942241,-6365.771101,-16136.489536,-76303.111601
2758.944799,-1924.535449,-4589.276840,-71706.538613
2758.947356,-148.041188,-1332.370696,-72625.853210
2758.949914,-296.082377,-1332.370696,-76915.987999
2758.952472,-3404.947333,-3552.988522,-75843.454302
2758.955029,-3404.947333,8142.265362,-69101.813920
2758.957587,-5477.523971,-5921.647536,-73238.729609
2758.960145,-3404.947333,-2812.782580,-76609.549800
2758.962702,148.041188,-8438.347739,-75537.016103
2758.965263,296.082377,3552.988522,-71093.662214
2758.967823,592.164754,-444.123565,-75230.577904
2758.970383,-1480.411884,-5477.523971,-75843.454302
2758.972943,-5181.441594,740.205942,-69714.690318
2758.975503,-8142.265362,-2664.741391,-72012.976812
2758.978064,-12583.501014,-9918.759623,-77988.521696
2758.980624,-12139.377449,-11547.212695,-75383.797003
2758.983184,-5625.565159,-8290.306550,-70480.785816
2758.985744,7994.224174,-2664.741391,-71706.538613
2758.988304,4737.318029,-3404.947333,-75996.673402
2758.990864,-4885.359217,5921.647536,-72625.853210
2758.993425,1924.535449,15988.448347,-71706.538613
2758.995985,5625.565159,9474.636058,-77988.521696
2758.998545,4293.194464,1036.288319,-77069.207099
2759.001105,7550.100608,7402.059420,-66343.870127
2759.003665,7698.141797,3256.906145,-71706.538613
2759.006226,5921.647536,-1628.453072,-78754.617194
2759.008786,3701.029710,3108.864956,-75537.016103
2759.011346,740.205942,12287.418637,-69714.690318
2759.013906,2072.576638,592.164754,-75383.797003
2759.016466,1332.370696,740.205942,-74158.044206
2759.019027,1776.494261,7254.018232,-70787.224015
2759.021587,444.123565,-2664.741391,-73698.386908
2759.024147,5477.523971,2516.700203,-76609.549800
2759.026707,5921.647536,4737.318029,-74311.263306
2759.029267,8438.347739,8734.430116,-71859.757712
2759.031828,11399.171507,7994.224174,-74004.825107
2759.034388,10658.965565,13915.871710,-71859.757712
2759.036948,3849.070898,11991.336260,-74924.139704
2759.039508,-6217.729913,1184.329507,-75383.797003
2759.042068,888.247130,-1332.370696,-72625.853210
2759.044628,-444.123565,-7402.059420,-72319.415011
2759.047191,-5773.606348,-12435.459826,-74158.044206
2759.049754,-8142.265362,-13619.789333,-74158.044206
2759.052316,-1924.535449,0.000000,-73391.948708
2759.054879,-740.205942,444.123565,-75537.016103
2759.057441,-3256.906145,1776.494261,-74617.701505
2759.060004,-3108.864956,444.123565,-71246.881314
2759.062566,-6513.812290,-3701.029710,-73085.510509
2759.065129,-4441.235652,-3404.947333,-74924.139704
2759.067691,-2812.782580,-1924.535449,-75690.235202
2759.070254,1184.329507,444.123565,-71859.757712
2759.072816,148.041188,1776.494261,-72625.853210
2759.075379,444.123565,-4737.318029,-74004.825107
2759.077942,-2812.782580,-4441.235652,-70327.566716
2759.080504,-6661.853478,0.000000,-70787.224015
2759.083067,-11991.336260,-9030.512492,-76149.892501
2759.085629,-11695.253884,-10510.924376,-75537.016103
2759.088192,1480.411884,-7994.224174,-71246.881314
2759.090754,10955.047942,1480.411884,-70787.224015
2759.093317,-592.164754,-4885.359217,-75690.235202
2759.095879,-1184.329507,7550.100608,-73085.510509
2759.098442,5773.606348,17320.819043,-71400.100414
2759.101004,5921.647536,10362.883188,-78448.178995
2759.103567,3701.029710,2220.617826,-75996.673402
2759.106129,4885.359217,1924.535449,-69255.033019
2759.108692,6513.812290,1036.288319,-72319.415011
2759.111255,6957.935855,2664.741391,-77835.302597
2759.113817,4441.235652,5477.523971,-73391.948708
2759.116380,4441.235652,7402.059420,-70787.224015
2759.118942,2664.741391,1036.288319,-74158.044206
2759.121505,592.164754,2812.782580,-74770.920605
2759.124067,-740.205942,740.205942,-71553.319513
2759.126630,-740.205942,5033.400406,-73698.386908
2759.129192,7994.224174,740.205942,-77835.302597
2759.131755,6365.771101,3701.029710,-72166.195912
2759.134317,10362.883188,12583.501014,-69867.909418
2759.136880,11399.171507,7994.224174,-75077.358804
2759.139443,4589.276840,15248.242405,-74770.920605
2759.142005,-5329.482782,4293.194464,-74617.701505
2759.144568,-2812.782580,6661.853478,-70634.004916
2759.147130,3256.906145,-4145.153275,-74158.044206
2759.149694,-1628.453072,-11547.212695,-74158.044206
2759.152258,-6957.935855,-13619.789333,-72166.195912
2759.154822,-1036.288319,-3108.864956,-71553.319513
2759.157386,-2664.741391,-4145.153275,-78448.178995
2759.159950,-3256.906145,2960.823768,-74464.482406
2759.162514,-1184.329507,5033.400406,-69867.909418
2759.165077,-4885.359217,-2812.782580,-73238.729609
2759.167641,296.082377,-2960.823768,-74770.920605
2759.170205,-2368.659014,-3849.070898,-73545.167808
2759.172769,-592.164754,1776.494261,-73085.510509
2759.175333,2368.659014,-5329.482782,-76456.330700
2759.177897,-1332.370696,1184.329507,-73085.510509
2759.180461,-3849.070898,-592.164754,-70327.566716
2759.183025,-4589.276840,-4441.235652,-70480.785816
2759.185589,-11843.295072,-7846.182985,-75996.673402
2759.188153,-11399.171507,-11991.336260,-77375.645298
2759.190716,-2516.700203,-4589.276840,-72779.072310
2759.193280,5477.523971,-4885.359217,-72932.291410
2759.195844,1480.411884,-2220.617826,-73851.606007
2759.198408,-6661.853478,-148.041188,-72779.072310
2759.200972,3849.070898,20429.683999,-70480.785816
2759.203536,6809.894666,7994.224174,-78754.617194
2759.206100,5477.523971,6957.935855,-74311.263306
2759.208664,4589.276840,2664.741391,-68642.156621
2759.211228,5033.400406,4737.318029,-70787.224015
2759.213792,2812.782580,-5329.482782,-78294.959896
2759.216355,2072.576638,7105.977043,-74464.482406
2759.218919,6957.935855,9326.594869,-71246.881314
2759.221483,2220.617826,-148.041188,-74924.139704
2759.224047,1036.288319,1332.370696,-72932.291410
2759.226611,3552.988522,6217.729913,-69714.690318
2759.229175,1332.370696,-592.164754,-76915.987999
2759.231739,2220.617826,4145.153275,-77988.521696
2759.234303,8734.430116,7698.141797,-73085.510509
2759.236867,13175.665768,9178.553681,-71706.538613
2759.239431,14359.995275,10362.883188,-72166.195912
2759.241994,8882.471304,10066.800811,-73238.729609
2759.244558,-1332.370696,11991.336260,-74158.044206
2759.247122,-4885.359217,1184.329507,-75383.797003
2759.249686,3108.864956,-1776.494261,-73698.386908
2759.252251,-2368.659014,-13767.830521,-72472.634111
2759.254816,-7254.018232,-14804.118840,-70480.785816
2759.257382,-2368.659014,-2960.823768,-73238.729609
2759.259947,-2368.659014,-1776.494261,-77682.083497
2759.262512,-5033.400406,3997.112087,-76456.330700
2759.265077,-5329.482782,740.205942,-71859.757712
2759.267642,-3552.988522,444.123565,-70480.785816
2759.270208,-2664.741391,-3256.906145,-73085.510509
2759.272773,1332.370696,0.000000,-73238.729609
2759.275338,3849.070898,-7550.100608,-76762.768900
2759.277903,-2220.617826,1480.411884,-74464.482406
2759.280468,-3997.112087,-296.082377,-71706.538613
2759.283033,-3997.112087,-7994.224174,-71706.538613
2759.285599,-9030.512492,-2516.700203,-70021.128517
2759.288164,-10510.924376,-10066.800811,-75843.454302
2759.290729,-7698.141797,-6217.729913,-76915.987999
2759.293294,3404.947333,-9474.636058,-74464.482406
2759.295859,8290.306550,1036.288319,-70787.224015
2759.298424,-3108.864956,-8438.347739,-73698.386908
2759.300990,-148.041188,9770.718434,-72319.415011
2759.303555,8438.347739,18505.148550,-74311.263306
2759.306120,8734.430116,10955.047942,-78601.398095
2759.308685,7846.182985,4737.318029,-73238.729609
2759.311250,5329.482782,1628.453072,-67722.842023
2759.313815,5033.400406,-1184.329507,-72319.415011
2759.316381,1924.535449,296.082377,-78294.959896
2759.318946,-444.123565,8882.471304,-75383.797003
2759.321511,3108.864956,5181.441594,-73085.510509
2759.324076,3552.988522,3552.988522,-73238.729609
2759.326641,3701.029710,-888.247130,-71859.757712
2759.329206,888.247130,2072.576638,-70327.566716
2759.331772,-1332.370696,5625.565159,-75996.673402
2759.334337,4885.359217,2072.576638,-80593.246390
2759.336902,7846.182985,11103.089130,-72779.072310
2759.339467,13323.706956,7698.141797,-70021.128517
2759.342032,14656.077652,10658.965565,-71706.538613
2759.344598,148.041188,10510.924376,-75690.235202
2759.347163,-5181.441594,8142.265362,-73085.510509
2759.349728,-296.082377,3404.947333,-73851.606007
2759.352293,-1776.494261,-13323.706956,-77069.207099
2759.354859,-8586.388927,-19541.436869,-72932.291410
2759.357426,-4589.276840,-6809.894666,-66497.089226
2759.359992,-148.041188,-3997.112087,-74464.482406
2759.362559,-1332.370696,-148.041188,-80593.246390
2759.365125,-2368.659014,2960.823768,-74158.044206
2759.367692,-2072.576638,7698.141797,-68029.280222
2759.370258,-4589.276840,-7402.059420,-73851.606007
2759.372824,-2664.741391,-3997.112087,-75537.016103
2759.375391,2812.782580,592.164754,-72319.415011
2759.377957,2812.782580,-1036.288319,-74770.920605
2759.380524,592.164754,1924.535449,-76609.549800
2759.383090,1332.370696,-7550.100608,-71246.881314
2759.385656,-7698.141797,-1776.494261,-66650.308326
2759.388223,-12731.542202,-10658.965565,-75077.358804
2759.390789,-14359.995275,-8586.388927,-79214.274493
2759.393356,-6217.729913,-7402.059420,-75843.454302
2759.395922,6957.935855,-4737.318029,-72779.072310
2759.398488,3256.906145,-4885.359217,-73238.729609
2759.401055,-4441.235652,-4737.318029,-71093.662214
2759.403621,3701.029710,25759.166782,-68948.594820
2759.406188,5181.441594,8882.471304,-82125.437386
2759.408754,4589.276840,9918.759623,-79367.493593
2759.411321,5181.441594,2368.659014,-68948.594820
2759.413887,8438.347739,7698.141797,-65577.774629
2759.416453,3849.070898,-11103.089130,-78907.836294
2759.419020,2368.659014,3849.070898,-76303.111601
2759.421586,1184.329507,14656.077652,-71400.100414
2759.424153,4145.153275,-1776.494261,-77528.864398
2759.426719,1628.453072,-4145.153275,-74464.482406
2759.429285,1036.288319,3849.070898,-68642.156621
2759.431852,1184.329507,3701.029710,-70787.224015
2759.434418,4293.194464,3701.029710,-81206.122788
2759.436985,10658.965565,8586.388927,-75383.797003
2759.439551,15100.201217,12879.583391,-69867.909418
2759.442118,15100.201217,10214.842000,-70634.004916
2759.444684,888.247130,8882.471304,-73851.606007
2759.447250,-9622.677246,4145.153275,-71859.757712
2759.449817,1036.288319,11843.295072,-73545.167808
2759.452383,2368.659014,-10362.883188,-79673.931792
2759.454950,-3552.988522,-14508.036463,-73085.510509
2759.457517,-5921.647536,-14656.077652,-66650.308326
2759.460084,-1628.453072,-3701.029710,-70480.785816
2759.462651,-3552.988522,-7105.977043,-81206.122788
2759.465218,-4441.235652,6365.771101,-76149.892501
2759.467785,-4885.359217,7994.224174,-69867.909418
2759.470353,-2220.617826,-5921.647536,-74004.825107
2759.472920,148.041188,-9326.594869,-74311.263306
2759.475487,-2960.823768,2368.659014,-70480.785816
2759.478054,-1184.329507,3997.112087,-75230.577904
2759.480621,-2220.617826,-5181.441594,-80593.246390
2759.483188,-3849.070898,1776.494261,-72625.853210
2759.485756,-4589.276840,-8734.430116,-67263.184724
2759.488323,-13915.871710,-5033.400406,-69561.471218
2759.490890,-13471.748144,-14211.954086,-77988.521696
2759.493457,-1924.535449,-3849.070898,-76149.892501
2759.496024,6217.729913,2220.617826,-74924.139704
2759.498591,-888.247130,-11547.212695,-75996.673402
2759.501158,-4737.318029,-740.205942,-68029.280222
2759.503726,3997.112087,15840.407159,-68029.280222
2759.506293,8142.265362,14211.954086,-79367.493593
2759.508860,5033.400406,9326.594869,-81818.999186
2759.511427,9622.677246,9770.718434,-68488.937521
2759.513994,6217.729913,4441.235652,-67109.965625
2759.516561,5329.482782,-9326.594869,-76303.111601
2759.519129,2368.659014,1184.329507,-74617.701505
2759.521696,3997.112087,13915.871710,-70940.443115
2759.524263,6069.688724,7994.224174,-77222.426198
2759.526830,740.205942,-6513.812290,-76149.892501
2759.529397,-3404.947333,3701.029710,-66497.089226
2759.531964,7254.018232,5625.565159,-70174.347617
2759.534532,1924.535449,0.000000,-79827.150892
2759.537099,7550.100608,12287.418637,-78754.617194
2759.539666,14063.912898,14063.912898,-69561.471218
2759.542233,13767.830521,8882.471304,-72166.195912
2759.544800,1184.329507,1924.535449,-74004.825107
2759.547367,-6365.771101,8290.306550,-70480.785816
2759.549935,1924.535449,11547.212695,-72932.291410
2759.552502,-888.247130,-12139.377449,-82738.313784
2759.555069,-6365.771101,-14952.160028,-74158.044206
2759.557636,-6365.771101,-13323.706956,-65271.336430
2759.560203,-4293.194464,-5625.565159,-70787.224015
2759.562771,-3256.906145,-8142.265362,-82431.875585
2759.565339,-2220.617826,12139.377449,-72472.634111
2759.567907,-4441.235652,8142.265362,-70634.004916
2759.570475,-6809.894666,-7846.182985,-74924.139704
2759.573043,-4145.153275,-7698.141797,-73698.386908
2759.575611,148.041188,-1924.535449,-68948.594820
2759.578179,-1332.370696,296.082377,-75690.235202
2759.580747,-1480.411884,-1924.535449,-81052.903688
2759.583315,592.164754,-1776.494261,-72166.195912
2759.585883,-6661.853478,-1776.494261,-64045.583633
2759.588451,-11251.130318,-13619.789333,-75537.016103
2759.591019,-13175.665768,-16284.530724,-79673.931792
2759.593587,2072.576638,5921.647536,-73238.729609
2759.596155,6809.894666,-2368.659014,-75690.235202
2759.598723,-2072.576638,-7402.059420,-74770.920605
2759.601291,740.205942,-740.205942,-68182.499322
2759.603859,7698.141797,22946.384202,-67263.184724
2759.606427,7402.059420,10510.924376,-81665.780087
2759.608995,6069.688724,10362.883188,-79980.369991
2759.611563,4441.235652,6069.688724,-69101.813920
2759.614131,4293.194464,-6365.771101,-71706.538613
2759.616699,5033.400406,-4441.235652,-76609.549800
2759.619267,1332.370696,4737.318029,-71706.538613
2759.621835,3404.947333,16728.654289,-72319.415011
2759.624403,5921.647536,148.041188,-79827.150892
2759.626971,444.123565,-3256.906145,-74158.044206
2759.629539,-1184.329507,6365.771101,-65577.774629
2759.632106,296.082377,0.000000,-72012.976812
2759.634674,4145.153275,3552.988522,-81818.999186
2759.637242,15544.324782,15248.242405,-74158.044206
2759.639810,16284.530724,17912.983796,-70480.785816
2759.642378,7846.182985,5477.523971,-73545.167808
2759.644946,-7698.141797,-2664.741391,-74158.044206
2759.647514,-5033.400406,8290.306550,-69714.690318
2759.650082,740.205942,5625.565159,-76149.892501
2759.652650,-4737.318029,-16284.530724,-82431.875585
2759.655218,-6069.688724,-13027.624579,-69867.909418
2759.657786,-740.205942,-5477.523971,-63892.364533
2759.660354,-1332.370696,-8882.471304,-75077.358804
2759.662922,-3849.070898,2812.782580,-78601.398095
2759.665490,-6661.853478,10955.047942,-70327.566716
2759.668057,-1332.370696,1036.288319,-73698.386908
2759.670625,1036.288319,-15544.324782,-76456.330700
2759.673193,-3849.070898,-444.123565,-67876.061123
2759.675760,-296.082377,8290.306550,-70634.004916
2759.678328,-740.205942,-6365.771101,-82431.875585
2759.680896,-6365.771101,592.164754,-75690.235202
2759.683464,-7402.059420,-7550.100608,-68335.718422
2759.686031,-14211.954086,-5477.523971,-69255.033019
2759.688599,-10658.965565,-14063.912898,-76915.987999
2759.691167,1480.411884,-1628.453072,-75843.454302
2759.693735,8586.388927,7698.141797,-74924.139704
2759.696302,-4885.359217,-11399.171507,-77528.864398
2759.698870,-2368.659014,1776.494261,-69408.252119
2759.701438,4885.359217,13175.665768,-66956.746525
2759.704005,7105.977043,15248.242405,-77682.083497
2759.706573,5625.565159,7402.059420,-80746.465489
2759.709141,10658.965565,11399.171507,-70174.347617
2759.711709,3108.864956,-5329.482782,-72012.976812
2759.714276,1924.535449,-4293.194464,-76149.892501
2759.716844,3256.906145,-296.082377,-72166.195912
2759.719412,5329.482782,11991.336260,-71706.538613
2759.721980,2664.741391,2072.576638,-78754.617194
2759.724547,1628.453072,-3108.864956,-76456.330700
2759.727115,0.000000,2664.741391,-66650.308326
2759.729683,5329.482782,5477.523971,-71093.662214
2759.732250,9178.553681,1036.288319,-80593.246390
2759.734818,11547.212695,14359.995275,-75077.358804
2759.737386,14359.995275,18505.148550,-69408.252119
2759.739954,6513.812290,7994.224174,-74464.482406
2759.742521,-5773.606348,-3849.070898,-73698.386908
2759.745089,-1184.329507,9622.677246,-68182.499322
2759.747657,3701.029710,1776.494261,-75383.797003
2759.750224,-4737.318029,-13027.624579,-81512.560987
2759.752792,-8734.430116,-17320.819043,-72166.195912
2759.755360,-3404.947333,-2072.576638,-64505.240932
2759.757928,-4441.235652,-12139.377449,-76456.330700
2759.760495,-4885.359217,3849.070898,-76762.768900
2759.763063,-2960.823768,10362.883188,-70787.224015
2759.765631,-4885.359217,4737.318029,-72625.853210
2759.768199,-4293.194464,-10955.047942,-77835.302597
2759.770767,0.000000,-9326.594869,-71859.757712
2759.773335,-1184.329507,2812.782580,-67876.061123
2759.775903,-1480.411884,888.247130,-78907.836294
2759.778470,-2960.823768,-6365.771101,-80286.808190
2759.781038,-8438.347739,-444.123565,-66956.746525
2759.783606,-8586.388927,-10214.842000,-69714.690318
2759.786174,-10214.842000,-18061.024985,-79214.274493
2759.788742,444.123565,-2812.782580,-76609.549800
2759.791310,4589.276840,3997.112087,-72319.415011
2759.793878,-2812.782580,-3997.112087,-75077.358804
2759.796446,-888.247130,-5033.400406,-72779.072310
2759.799014,8586.388927,19541.436869,-66803.527426
2759.801582,8586.388927,13767.830521,-75383.797003
2759.804149,8142.265362,11547.212695,-79980.369991
2759.806717,5477.523971,5329.482782,-70787.224015
2759.809285,2960.823768,-1036.288319,-70021.128517
2759.811853,4145.153275,-4589.276840,-75996.673402
2759.814421,4145.153275,444.123565,-73851.606007
2759.816989,4589.276840,9770.718434,-71706.538613
2759.819557,3997.112087,7846.182985,-75690.235202
2759.822125,740.205942,-3108.864956,-77069.207099
2759.824693,1332.370696,2072.576638,-68488.937521
2759.827261,2812.782580,4145.153275,-69101.813920
2759.829828,3849.070898,6217.729913,-79980.369991
2759.832396,16876.695478,13027.624579,-77222.426198
2759.834964,14656.077652,18949.272115,-68029.280222
2759.837532,4589.276840,7994.224174,-72166.195912
2759.840100,-6957.935855,-5033.400406,-75230.577904
2759.842668,444.123565,5625.565159,-70787.224015
2759.845236,-1924.535449,-2220.617826,-76303.111601
2759.847804,-7994.224174,-11843.295072,-78141.740796
2759.850372,-7550.100608,-18801.230927,-73698.386908
2759.852939,-888.247130,-3404.947333,-65118.117330
2759.855507,-1184.329507,-4293.194464,-76762.768900
2759.858075,-3701.029710,5181.441594,-76762.768900
2759.860643,-5773.606348,6809.894666,-73085.510509
2759.863211,-6217.729913,1628.453072,-71706.538613
2759.865779,-1184.329507,-8586.388927,-75996.673402
2759.868346,888.247130,-11843.295072,-72625.853210
2759.870913,-1628.453072,7254.018232,-69408.252119
2759.873481,3108.864956,1776.494261,-77682.083497
2759.876048,-6661.853478,-6365.771101,-79367.493593
2759.878615,-10658.965565,-7698.141797,-66497.089226
2759.881182,-12879.583391,-12435.459826,-69561.471218
2759.883749,-7698.141797,-10658.965565,-77988.521696
2759.886317,5477.523971,-4293.194464,-79520.712692
2759.888884,5181.441594,8734.430116,-71246.881314
2759.891451,-2812.782580,-6069.688724,-72472.634111
2759.894018,5477.523971,10510.924376,-70021.128517
2759.896586,7846.182985,6513.812290,-74158.044206
2759.899153,6957.935855,16728.654289,-75230.577904
2759.901720,4145.153275,9326.594869,-76609.549800
2759.904287,4589.276840,5921.647536,-71859.757712
2759.906854,6957.935855,-4589.276840,-72625.853210
2759.909422,3997.112087,-2220.617826,-72779.072310
2759.911989,3404.947333,7254.018232,-72779.072310
2759.914556,2368.659014,6957.935855,-75843.454302
2759.917123,1036.288319,2368.659014,-75230.577904
2759.919691,-1480.411884,-1628.453072,-72472.634111
2759.922258,296.082377,2960.823768,-69867.909418
2759.924825,7105.977043,5329.482782,-74464.482406
2759.927392,13027.624579,9178.553681,-77835.302597
2759.929959,13915.871710,15988.448347,-74770.920605
2759.932527,8438.347739,13471.748144,-70480.785816
2759.935094,-6809.894666,-148.041188,-72166.195912
2759.937661,-4737.318029,1036.288319,-72166.195912
2759.940228,-148.041188,1776.494261,-75843.454302
2759.942795,-3849.070898,-10362.883188,-77222.426198
2759.945363,-7105.977043,-13027.624579,-73238.729609
2759.947930,-1628.453072,-9918.759623,-69561.471218
2759.950497,-1628.453072,-9918.759623,-74924.139704
2759.953064,-4589.276840,3552.988522,-75383.797003
2759.955632,-6513.812290,6513.812290,-73698.386908
2759.958199,-6661.853478,5477.523971,-73545.167808
2759.960766,-2664.741391,-5329.482782,-74464.482406
2759.963333,1036.288319,-3701.029710,-70480.785816
2759.965900,1628.453072,-5921.647536,-71706.538613
2759.968468,-296.082377,3552.988522,-75690.235202
2759.971035,-2368.659014,-4737.318029,-77835.302597
2759.973602,-11103.089130,-4145.153275,-71093.662214
2759.976169,-15544.324782,-10362.883188,-69561.471218
2759.978736,-6217.729913,-12583.501014,-75690.235202
2759.981303,8438.347739,-1332.370696,-76915.987999
2759.983870,5773.606348,1924.535449,-75690.235202
2759.986437,-2812.782580,-4441.235652,-72779.072310
2759.989004,1184.329507,7105.977043,-69867.909418
2759.991571,6069.688724,8586.388927,-72166.195912
2759.994138,4737.318029,12731.542202,-76915.987999
2759.996705,6217.729913,11547.212695,-75383.797003
2759.999272,7846.182985,10807.006753,-71093.662214
2760.001839,6217.729913,-5625.565159,-74311.263306
2760.004406,4885.359217,-4145.153275,-73391.948708
2760.006973,2664.741391,6217.729913,-70327.566716
2760.009540,1332.370696,5921.647536,-74770.920605
2760.012107,-888.247130,1332.370696,-80286.808190
2760.014674,4589.276840,-1184.329507,-72472.634111
2760.017241,3256.906145,5181.441594,-67263.184724
2760.019807,5921.647536,3849.070898,-72932.291410
2760.022374,13175.665768,7254.018232,-78754.617194
2760.024941,14359.995275,16580.613101,-74311.263306
2760.027508,6069.688724,15692.365970,-71859.757712
2760.030075,-5921.647536,148.041188,-72625.853210
2760.032642,-3701.029710,148.041188,-71706.538613
2760.035209,3108.864956,5625.565159,-72012.976812
2760.037776,-4441.235652,-13175.665768,-79367.493593
2760.040343,-5773.606348,-12435.459826,-74311.263306
2760.042910,-2812.782580,-10066.800811,-69101.813920
2760.045477,-444.123565,-6809.894666,-72012.976812
2760.048044,-3701.029710,-1480.411884,-76915.987999
2760.050611,-5181.441594,8142.265362,-71859.757712
2760.053178,-4145.153275,6809.894666,-72166.195912
2760.055745,1332.370696,-2812.782580,-75843.454302
2760.058312,-1776.494261,-11843.295072,-73851.606007
2760.060879,2516.700203,296.082377,-68948.594820
2760.063446,1924.535449,2812.782580,-74004.825107
2760.066013,-7105.977043,-3404.947333,-80133.589091
2760.068580,-10807.006753,-10658.965565,-73545.167808
2760.071147,-15248.242405,-5329.482782,-65577.774629
2760.073714,-2664.741391,-10807.006753,-75077.358804
2760.076281,5329.482782,-8142.265362,-79520.712692
2760.078848,4589.276840,5773.606348,-74004.825107
2760.081415,-5181.441594,-2368.659014,-72932.291410
2760.083981,296.082377,8586.388927,-71400.100414
2760.086548,8882.471304,7254.018232,-73085.510509
2760.089115,9178.553681,17468.860231,-72472.634111
2760.091682,8142.265362,7846.182985,-75230.577904
2760.094248,6809.894666,8438.347739,-72779.072310
2760.096815,3552.988522,-1184.329507,-73238.729609
2760.099382,-2220.617826,-3256.906145,-72932.291410
2760.101949,-444.123565,6513.812290,-73238.729609
2760.104516,7254.018232,-592.164754,-75843.454302
2760.107082,2072.576638,3552.988522,-74311.263306
2760.109649,2812.782580,2220.617826,-72932.291410
2760.112216,7254.018232,-2220.617826,-72779.072310
2760.114783,4293.194464,9918.759623,-72166.195912
2760.117350,15544.324782,9326.594869,-79367.493593
2760.119916,13323.706956,12139.377449,-75537.016103
2760.122483,2368.659014,14211.954086,-69561.471218
2760.125050,-5033.400406,-1036.288319,-69867.909418
2760.127617,4145.153275,6809.894666,-72472.634111
2760.130184,-3849.070898,-12287.418637,-77835.302597
2760.132750,-7698.141797,-6661.853478,-74924.139704
2760.135317,-8882.471304,-17320.819043,-72625.853210
2760.137884,-4145.153275,-7402.059420,-72166.195912
2760.140451,-1036.288319,-7550.100608,-75077.358804
2760.143018,-1480.411884,8290.306550,-71246.881314
2760.145584,-5181.441594,3404.947333,-74004.825107
2760.148151,-4145.153275,-740.205942,-76149.892501
2760.150718,148.041188,-5921.647536,-72932.291410
2760.153285,-2664.741391,-5033.400406,-71400.100414
2760.155852,-3256.906145,740.205942,-73698.386908
2760.158418,-592.164754,-2220.617826,-77069.207099
2760.160985,-8142.265362,-888.247130,-73238.729609
2760.163552,-13175.665768,-12879.583391,-71246.881314
2760.166119,-7846.182985,-9770.718434,-68948.594820
2760.168686,-444.123565,-8882.471304,-76609.549800
2760.171252,5625.565159,1184.329507,-77988.521696
2760.173819,-4737.318029,-3404.947333,-74770.920605
2760.176386,1776.494261,7105.977043,-69408.252119
2760.178953,8734.430116,8882.471304,-72012.976812
2760.181519,8882.471304,13471.748144,-75537.016103
2760.184086,8734.430116,11547.212695,-74158.044206
2760.186653,6365.771101,10807.006753,-72319.415011
2760.189220,3997.112087,-1036.288319,-75383.797003
2760.191786,2960.823768,-1184.329507,-77375.645298
2760.194353,6217.729913,2516.700203,-70021.128517
2760.196920,3256.906145,7994.224174,-71859.757712
2760.199487,3849.070898,-444.123565,-78601.398095
2760.202053,2664.741391,1332.370696,-74004.825107
2760.204620,1036.288319,3552.988522,-69561.471218
2760.207187,5033.400406,2220.617826,-72932.291410
2760.209754,11399.171507,11399.171507,-77069.207099
2760.212320,14359.995275,10066.800811,-77682.083497
2760.214887,10362.883188,19985.560434,-70327.566716
2760.217454,-5329.482782,1776.494261,-71706.538613
2760.220020,-1924.535449,1332.370696,-70940.443115
2760.222587,-148.041188,-148.041188,-73851.606007
2760.225154,-8586.388927,-13323.706956,-78294.959896
2760.227721,-9030.512492,-11251.130318,-74004.825107
2760.230287,-3108.864956,-12731.542202,-71246.881314
2760.232854,-148.041188,-6661.853478,-72625.853210
2760.235421,-1628.453072,-444.123565,-75537.016103
2760.237988,-3701.029710,6957.935855,-72319.415011
2760.240554,-3108.864956,2220.617826,-73391.948708
2760.243121,-3256.906145,-1628.453072,-75230.577904
2760.245688,-1924.535449,-4589.276840,-72625.853210
2760.248255,-1184.329507,-2368.659014,-70480.785816
2760.250821,-148.041188,1480.411884,-74158.044206
2760.253388,-5033.400406,-5921.647536,-77682.083497
2760.255955,-11695.253884,-8438.347739,-70940.443115
2760.258521,-13323.706956,-9770.718434,-67109.965625
2760.261088,-1924.535449,-6365.771101,-75230.577904
2760.263655,5921.647536,-5329.482782,-80746.465489
2760.266222,-296.082377,1332.370696,-73391.948708
2760.268788,1628.453072,3997.112087,-69867.909418
2760.271355,6957.935855,11695.253884,-72625.853210
2760.273922,7698.141797,8142.265362,-75996.673402
2760.276489,7254.018232,16284.530724,-71553.319513
2760.279055,5329.482782,7698.141797,-72625.853210
2760.281621,3404.947333,4441.235652,-75996.673402
2760.284187,5033.400406,-3701.029710,-74770.920605
2760.286753,3997.112087,0.000000,-70634.004916
2760.289319,3108.864956,1184.329507,-73698.386908
2760.291885,3552.988522,6809.894666,-75690.235202
2760.294451,1332.370696,3108.864956,-73851.606007
2760.297017,-1480.411884,-2812.782580,-73391.948708
2760.299583,6365.771101,5477.523971,-72472.634111
2760.302149,11843.295072,7254.018232,-74311.263306
2760.304715,17024.736666,17172.777854,-76303.111601
2760.307281,9770.718434,11251.130318,-76149.892501
2760.309847,-3108.864956,8734.430116,-70174.347617
2760.312413,-3108.864956,2368.659014,-70480.785816
2760.314979,-148.041188,888.247130,-75077.358804
2760.317546,-6661.853478,-14063.912898,-79367.493593
2760.320112,-8290.306550,-11843.295072,-72166.195912
2760.322678,-2220.617826,-9030.512492,-70480.785816
2760.325244,-2072.576638,-10955.047942,-75383.797003
2760.327810,-592.164754,-1036.288319,-75996.673402
2760.330376,-4737.318029,7698.141797,-71093.662214
2760.332942,-4145.153275,6957.935855,-72472.634111
2760.335508,1628.453072,-8586.388927,-78294.959896
2760.338074,1480.411884,-9622.677246,-72319.415011
2760.340640,3404.947333,740.205942,-69255.033019
2760.343206,2368.659014,2220.617826,-75077.358804
2760.345772,-8734.430116,-8142.265362,-79214.274493
2760.348338,-12435.459826,-8438.347739,-71706.538613
2760.350904,-13175.665768,-9622.677246,-67722.842023
2760.353470,-2516.700203,-6069.688724,-73851.606007
2760.356036,5477.523971,-9474.636058,-79673.931792
2760.358602,-2072.576638,1184.329507,-74464.482406
2760.361168,3256.906145,7698.141797,-70174.347617
2760.363734,5625.565159,5921.647536,-74311.263306
2760.366300,7846.182985,14211.954086,-74617.701505
2760.368866,5921.647536,11399.171507,-73085.510509
2760.371431,5921.647536,10066.800811,-73698.386908
2760.373997,3701.029710,-296.082377,-75230.577904
2760.376563,6217.729913,1184.329507,-74158.044206
2760.379129,3256.906145,-2220.617826,-72012.976812
2760.381694,1184.329507,8142.265362,-71859.757712
