#time,accel_x,accel_y,accel_z
2569.484788,1776.494261,1184.329507,-73851.606007
2569.487318,1036.288319,1628.453072,-74158.044206
2569.489848,740.205942,148.041188,-74004.825107
2569.492378,740.205942,1480.411884,-72932.291410
2569.494909,-296.082377,740.205942,-73545.167808
2569.497439,-592.164754,1036.288319,-74158.044206
2569.499969,888.247130,1332.370696,-73545.167808
2569.502499,2220.617826,1184.329507,-73085.510509
2569.505029,1184.329507,740.205942,-73851.606007
2569.507559,444.123565,740.205942,-74004.825107
2569.510089,148.041188,2812.782580,-72779.072310
2569.512620,1036.288319,592.164754,-73851.606007
2569.515150,-7105.977043,0.000000,-73085.510509
2569.517680,444.123565,2220.617826,-72319.415011
2569.520210,3849.070898,1036.288319,-73698.386908
2569.522740,6069.688724,5329.482782,-73545.167808
2569.525270,8438.347739,2664.741391,-74617.701505
2569.527800,15248.242405,11251.130318,-72779.072310
2569.530331,9474.636058,13175.665768,-75537.016103
2569.532861,-2516.700203,13027.624579,-75383.797003
2569.535391,-14952.160028,1480.411884,-73851.606007
2569.537921,-6217.729913,-148.041188,-69561.471218
2569.540451,8586.388927,-7550.100608,-74770.920605
2569.542981,7105.977043,-8734.430116,-76915.987999
2569.545511,-2516.700203,-6513.812290,-75537.016103
2569.548041,-7402.059420,-3552.988522,-72012.976812
2569.550572,-8438.347739,3552.988522,-73545.167808
2569.553102,-3404.947333,1480.411884,-74464.482406
2569.555632,3997.112087,10214.842000,-72012.976812
2569.558162,3849.070898,5033.400406,-73851.606007
2569.560692,2072.576638,-3404.947333,-76456.330700
2569.563222,-5329.482782,-7402.059420,-71859.757712
2569.565752,-6957.935855,-8290.306550,-70787.224015
2569.568283,-5181.441594,-2516.700203,-73085.510509
2569.570813,2220.617826,3997.112087,-76456.330700
2569.573343,4293.194464,3404.947333,-74311.263306
2569.575873,1184.329507,-3108.864956,-71859.757712
2569.578403,-2072.576638,1036.288319,-70327.566716
2569.580907,1628.453072,-148.041188,-76303.111601
2569.583417,-2072.576638,1480.411884,-77835.302597
2569.585928,-4885.359217,3108.864956,-72625.853210
2569.588439,-2072.576638,-4737.318029,-71093.662214
2569.590950,-7105.977043,-5625.565159,-71859.757712
2569.593461,-5033.400406,-2664.741391,-76456.330700
2569.595972,-5921.647536,-2812.782580,-76303.111601
2569.598482,-3701.029710,-2960.823768,-73698.386908
2569.600993,-740.205942,-4441.235652,-71706.538613
2569.603504,-740.205942,-5625.565159,-71553.319513
2569.606015,2960.823768,3552.988522,-72625.853210
2569.608526,3849.070898,5625.565159,-75537.016103
2569.611037,-9030.512492,1036.288319,-76456.330700
2569.613547,-8142.265362,-3256.906145,-72472.634111
2569.616058,-444.123565,-2960.823768,-70174.347617
2569.618569,6217.729913,-2664.741391,-72319.415011
2569.621080,-2220.617826,-7994.224174,-77069.207099
2569.623591,296.082377,2072.576638,-73545.167808
2569.626102,740.205942,10955.047942,-72319.415011
2569.628612,-1776.494261,-1628.453072,-77222.426198
2569.631123,-148.041188,-1036.288319,-72319.415011
2569.633634,8882.471304,12583.501014,-68488.937521
2569.636145,6365.771101,2664.741391,-80286.808190
2569.638656,888.247130,592.164754,-77988.521696
2569.641166,-592.164754,1332.370696,-69867.909418
2569.643677,1628.453072,1480.411884,-69714.690318
2569.646188,5033.400406,-3552.988522,-77069.207099
2569.648699,2812.782580,4145.153275,-74464.482406
2569.651210,296.082377,10658.965565,-70480.785816
2569.653721,148.041188,5921.647536,-75537.016103
2569.656231,2960.823768,-888.247130,-77375.645298
2569.658742,5329.482782,2960.823768,-69867.909418
2569.661253,3404.947333,3701.029710,-72012.976812
2569.663764,444.123565,444.123565,-77069.207099
2569.666275,-3701.029710,4293.194464,-74924.139704
2569.668786,740.205942,6661.853478,-71706.538613
2569.671296,5921.647536,-2960.823768,-73545.167808
2569.673807,1776.494261,-296.082377,-73085.510509
2569.676318,2516.700203,4145.153275,-71553.319513
2569.678829,296.082377,-2368.659014,-75537.016103
2569.681353,-6365.771101,-444.123565,-76456.330700
2569.683878,1332.370696,4293.194464,-73238.729609
2569.686402,5477.523971,740.205942,-71246.881314
2569.688926,8290.306550,7254.018232,-72932.291410
2569.691451,8586.388927,1628.453072,-75230.577904
2569.693975,4441.235652,12583.501014,-73238.729609
2569.696499,2516.700203,4885.359217,-75230.577904
2569.699024,-1184.329507,6069.688724,-74464.482406
2569.701548,-3108.864956,-3404.947333,-73238.729609
2569.704073,1628.453072,-2220.617826,-71859.757712
2569.706597,10066.800811,3256.906145,-73391.948708
2569.709121,12435.459826,3552.988522,-76303.111601
2569.711646,2072.576638,3701.029710,-74464.482406
2569.714170,-5921.647536,2368.659014,-72012.976812
2569.716694,-1332.370696,7402.059420,-71246.881314
2569.719219,-740.205942,3552.988522,-76149.892501
2569.721743,3404.947333,-2072.576638,-75843.454302
2569.724267,3108.864956,2812.782580,-71706.538613
2569.726792,888.247130,1036.288319,-73698.386908
2569.729316,-8586.388927,-15692.365970,-76456.330700
2569.731841,-6069.688724,-2220.617826,-70174.347617
2569.734365,-888.247130,2516.700203,-71859.757712
2569.736889,1924.535449,-1036.288319,-77375.645298
2569.739414,148.041188,0.000000,-75690.235202
2569.741938,-1332.370696,4293.194464,-67876.061123
2569.744462,-2368.659014,2368.659014,-72166.195912
2569.746987,-1332.370696,-6365.771101,-77528.864398
2569.749511,296.082377,-1036.288319,-74158.044206
2569.752035,-3108.864956,444.123565,-71553.319513
2569.754560,-4885.359217,-7846.182985,-76149.892501
2569.757084,-2220.617826,-4885.359217,-72625.853210
2569.759609,2220.617826,2220.617826,-70480.785816
2569.762133,3997.112087,296.082377,-74617.701505
2569.764657,444.123565,-1480.411884,-76609.549800
2569.767182,-2368.659014,5921.647536,-72625.853210
2569.769706,-1628.453072,296.082377,-72779.072310
2569.772230,-4145.153275,-4885.359217,-75996.673402
2569.774755,296.082377,3404.947333,-73851.606007
2569.777279,6069.688724,3997.112087,-73238.729609
2569.779803,-740.205942,-3404.947333,-75077.358804
2569.782339,-2220.617826,-3108.864956,-74617.701505
2569.784874,-7698.141797,-2368.659014,-70327.566716
2569.787409,-7550.100608,-1776.494261,-73698.386908
2569.789944,-5033.400406,-11547.212695,-75537.016103
2569.792480,-1480.411884,-1480.411884,-72472.634111
2569.795015,1628.453072,-3108.864956,-72319.415011
2569.797550,4441.235652,1776.494261,-74464.482406
2569.800086,-148.041188,2072.576638,-74311.263306
2569.802621,-7698.141797,5181.441594,-72932.291410
2569.805156,-11399.171507,-592.164754,-72779.072310
2569.807691,-592.164754,-592.164754,-74464.482406
2569.810227,6069.688724,-3552.988522,-73851.606007
2569.812762,1184.329507,-6217.729913,-74311.263306
2569.815297,148.041188,-5181.441594,-72166.195912
2569.817832,-888.247130,5329.482782,-72012.976812
2569.820368,-1036.288319,-296.082377,-76456.330700
2569.822903,1628.453072,3849.070898,-75077.358804
2569.825438,10807.006753,15544.324782,-69714.690318
2569.827973,6809.894666,5773.606348,-74617.701505
2569.830509,740.205942,-2220.617826,-76456.330700
2569.833044,-1332.370696,-1924.535449,-72319.415011
2569.835579,1924.535449,5921.647536,-70480.785816
2569.838115,4737.318029,-4589.276840,-77528.864398
2569.840650,5773.606348,2072.576638,-76303.111601
2569.843185,-148.041188,6661.853478,-70021.128517
2569.845720,-148.041188,5477.523971,-73238.729609
2569.848256,2664.741391,3108.864956,-76456.330700
2569.850791,5477.523971,6661.853478,-73238.729609
2569.853326,8142.265362,4293.194464,-72625.853210
2569.855861,4885.359217,-1776.494261,-75383.797003
2569.858397,-592.164754,-148.041188,-74004.825107
2569.860932,-1332.370696,-1776.494261,-72625.853210
2569.863467,1924.535449,6217.729913,-71859.757712
2569.866002,3256.906145,1480.411884,-75537.016103
2569.868538,-592.164754,444.123565,-74004.825107
2569.871073,-2664.741391,2812.782580,-71859.757712
2569.873608,296.082377,-1332.370696,-74004.825107
2569.876143,148.041188,5921.647536,-74004.825107
2569.878679,6069.688724,3108.864956,-74311.263306
2569.881214,10214.842000,9326.594869,-72472.634111
2569.883759,9622.677246,5181.441594,-74311.263306
2569.886303,5181.441594,7994.224174,-74311.263306
2569.888848,-2072.576638,1628.453072,-73391.948708
2569.891393,-4293.194464,1924.535449,-73085.510509
2569.893938,3108.864956,-444.123565,-73698.386908
2569.896482,9326.594869,1628.453072,-74004.825107
2569.899027,13027.624579,3404.947333,-73085.510509
2569.901572,148.041188,2072.576638,-74770.920605
2569.904117,-3701.029710,3997.112087,-71706.538613
2569.906661,-592.164754,8734.430116,-73085.510509
2569.909206,3404.947333,5329.482782,-76303.111601
2569.911751,-1184.329507,-6365.771101,-77069.207099
2569.914295,3997.112087,6069.688724,-69408.252119
2569.916840,-4293.194464,-7994.224174,-74158.044206
2569.919385,-11547.212695,-8290.306550,-75537.016103
2569.921930,-2812.782580,-1332.370696,-72012.976812
2569.924474,1480.411884,888.247130,-72012.976812
2569.927019,3108.864956,-1628.453072,-76762.768900
2569.929564,-444.123565,-296.082377,-74158.044206
2569.932109,-6217.729913,2516.700203,-70021.128517
2569.934653,-2960.823768,1480.411884,-72932.291410
2569.937198,-592.164754,-1480.411884,-77835.302597
2569.939743,1480.411884,-444.123565,-73238.729609
2569.942288,-1480.411884,-4885.359217,-71859.757712
2569.944832,-2664.741391,-7105.977043,-74464.482406
2569.947377,-6957.935855,-3404.947333,-74311.263306
2569.949922,-3256.906145,740.205942,-72932.291410
2569.952466,1480.411884,2516.700203,-74311.263306
2569.955011,-1332.370696,-1184.329507,-74617.701505
2569.957556,1184.329507,3404.947333,-72932.291410
2569.960101,1628.453072,-296.082377,-72319.415011
2569.962645,-2368.659014,-1332.370696,-75690.235202
2569.965190,-4589.276840,1184.329507,-75230.577904
2569.967735,740.205942,740.205942,-72779.072310
2569.970280,-296.082377,-1924.535449,-72319.415011
2569.972824,-5477.523971,-3552.988522,-73391.948708
2569.975369,-7105.977043,-9178.553681,-73851.606007
2569.977914,-4737.318029,-2516.700203,-72472.634111
2569.980458,-2812.782580,-6809.894666,-74617.701505
2569.983003,3552.988522,1184.329507,-74770.920605
2569.985556,2220.617826,1628.453072,-72472.634111
2569.988109,-4293.194464,2664.741391,-72779.072310
2569.990662,-7550.100608,148.041188,-73391.948708
2569.993215,-5921.647536,1776.494261,-73698.386908
2569.995767,2812.782580,-2220.617826,-74924.139704
2569.998320,2516.700203,-4737.318029,-75843.454302
2570.000873,-740.205942,-5181.441594,-71246.881314
2570.003426,-296.082377,1480.411884,-70480.785816
2570.005979,740.205942,1776.494261,-75843.454302
2570.008532,-1480.411884,4145.153275,-77222.426198
2570.011085,7698.141797,15396.283594,-71400.100414
2570.013637,8142.265362,5033.400406,-73851.606007
2570.016190,1628.453072,148.041188,-75690.235202
2570.018743,-1332.370696,-888.247130,-70634.004916
2570.021296,2220.617826,3552.988522,-71400.100414
2570.023849,6069.688724,-3108.864956,-77988.521696
2570.026402,4737.318029,2368.659014,-76149.892501
2570.028955,2072.576638,5921.647536,-70021.128517
2570.031507,-2220.617826,5477.523971,-70634.004916
2570.034060,-444.123565,1480.411884,-75383.797003
2570.036613,4293.194464,6661.853478,-74158.044206
2570.039166,5329.482782,5773.606348,-73545.167808
2570.041719,740.205942,-2368.659014,-75690.235202
2570.044272,-296.082377,296.082377,-74158.044206
2570.046824,-1924.535449,-3108.864956,-71706.538613
2570.049377,1332.370696,5329.482782,-71246.881314
2570.051930,1924.535449,3256.906145,-74770.920605
2570.054483,1628.453072,2812.782580,-75077.358804
2570.057036,3256.906145,444.123565,-72932.291410
2570.059589,2072.576638,2368.659014,-74004.825107
2570.062142,1184.329507,4293.194464,-74464.482406
2570.064694,6809.894666,5625.565159,-73545.167808
2570.067247,8734.430116,12287.418637,-71553.319513
2570.069800,3997.112087,4589.276840,-74158.044206
2570.072353,444.123565,3404.947333,-73851.606007
2570.074906,-3552.988522,-740.205942,-72319.415011
2570.077459,1924.535449,148.041188,-73391.948708
2570.080012,9770.718434,1924.535449,-75230.577904
2570.082564,8142.265362,6957.935855,-75077.358804
2570.085117,-2220.617826,148.041188,-72319.415011
2570.087677,-1924.535449,4885.359217,-71093.662214
2570.090236,3404.947333,7846.182985,-73698.386908
2570.092796,3701.029710,444.123565,-78141.740796
2570.095355,2664.741391,1480.411884,-73698.386908
2570.097914,740.205942,2516.700203,-71706.538613
2570.100474,-7402.059420,-9178.553681,-74617.701505
2570.103033,-12139.377449,-11251.130318,-73851.606007
2570.105593,-3849.070898,1036.288319,-69714.690318
2570.108152,3701.029710,296.082377,-75230.577904
2570.110712,3552.988522,-2960.823768,-78141.740796
2570.113271,-2960.823768,1184.329507,-72625.853210
2570.115831,-7698.141797,4293.194464,-69101.813920
2570.118390,-6809.894666,-1776.494261,-75383.797003
2570.120949,-1924.535449,-3849.070898,-77222.426198
2570.123509,3256.906145,3997.112087,-71093.662214
2570.126068,1480.411884,-3256.906145,-73238.729609
2570.128628,-1924.535449,-9918.759623,-74770.920605
2570.131187,-9030.512492,-592.164754,-70940.443115
2570.133747,-4737.318029,1628.453072,-72625.853210
2570.136306,-148.041188,2072.576638,-75537.016103
2570.138865,2072.576638,1184.329507,-73698.386908
2570.141425,-148.041188,1184.329507,-72012.976812
2570.143984,0.000000,-296.082377,-72472.634111
2570.146544,888.247130,-2220.617826,-75690.235202
2570.149103,-1924.535449,4589.276840,-74004.825107
2570.151663,-4589.276840,-1924.535449,-74464.482406
2570.154222,-8586.388927,-5033.400406,-73851.606007
2570.156782,-4885.359217,-8734.430116,-72932.291410
2570.159341,-148.041188,-4737.318029,-72625.853210
2570.161900,1036.288319,-3849.070898,-76303.111601
2570.164460,5033.400406,740.205942,-74924.139704
2570.167019,1184.329507,5181.441594,-73085.510509
2570.169579,-9474.636058,1184.329507,-72779.072310
2570.172138,-10510.924376,-1036.288319,-71400.100414
2570.174698,-1184.329507,0.000000,-73851.606007
2570.177257,7105.977043,1776.494261,-73391.948708
2570.179816,-1480.411884,-10362.883188,-75996.673402
2570.182376,-1776.494261,-3997.112087,-70634.004916
2570.184935,-1776.494261,888.247130,-71093.662214
2570.187495,-2368.659014,1480.411884,-75537.016103
2570.190059,1184.329507,5181.441594,-76303.111601
2570.192623,10658.965565,17616.901420,-70021.128517
2570.195187,8142.265362,9326.594869,-75843.454302
2570.197751,1628.453072,-2072.576638,-75537.016103
2570.200315,-3108.864956,-3256.906145,-70787.224015
2570.202879,1332.370696,3849.070898,-71093.662214
2570.205443,6957.935855,-2960.823768,-78754.617194
2570.208007,7105.977043,2664.741391,-75537.016103
2570.210571,2664.741391,8290.306550,-69408.252119
2570.213135,592.164754,6217.729913,-72166.195912
2570.215699,740.205942,740.205942,-76149.892501
2570.218263,2368.659014,5477.523971,-73085.510509
2570.220827,1924.535449,7994.224174,-72166.195912
2570.223391,3849.070898,-296.082377,-76303.111601
2570.225955,-592.164754,-592.164754,-73545.167808
2570.228519,4293.194464,4737.318029,-70174.347617
2570.231083,148.041188,-1036.288319,-73851.606007
2570.233647,1924.535449,2664.741391,-74924.139704
2570.236211,2516.700203,2960.823768,-73391.948708
2570.238775,-1480.411884,6661.853478,-71093.662214
2570.241339,3849.070898,-2516.700203,-78294.959896
2570.243903,6513.812290,8438.347739,-72166.195912
2570.246467,6217.729913,8290.306550,-71093.662214
2570.249031,7698.141797,9918.759623,-73545.167808
2570.251595,-592.164754,3256.906145,-75230.577904
2570.254159,-3849.070898,-444.123565,-71246.881314
2570.256723,5477.523971,3997.112087,-72319.415011
2570.259287,8142.265362,296.082377,-76609.549800
2570.261851,4589.276840,2812.782580,-74464.482406
2570.264415,-3256.906145,2960.823768,-70940.443115
2570.266979,296.082377,5329.482782,-71553.319513
2570.269543,3256.906145,3849.070898,-76149.892501
2570.272107,1480.411884,2072.576638,-75077.358804
2570.274671,3404.947333,4589.276840,-69714.690318
2570.277235,-148.041188,-444.123565,-74311.263306
2570.279799,-10510.924376,-13471.748144,-76915.987999
2570.282363,-7105.977043,-5625.565159,-71093.662214
2570.284927,296.082377,888.247130,-70327.566716
2570.287491,4589.276840,-2516.700203,-77222.426198
2570.290055,2516.700203,-4145.153275,-77069.207099
2570.292623,-3997.112087,5033.400406,-70174.347617
2570.295191,-7698.141797,2516.700203,-71246.881314
2570.297759,-2812.782580,-3701.029710,-77069.207099
2570.300328,1924.535449,-1480.411884,-73545.167808
2570.302896,1628.453072,2960.823768,-71706.538613
2570.305464,296.082377,-7550.100608,-75996.673402
2570.308032,-1036.288319,-6957.935855,-74924.139704
2570.310600,-7105.977043,-888.247130,-71093.662214
2570.313168,-3849.070898,3701.029710,-72012.976812
2570.315737,2960.823768,-1480.411884,-77222.426198
2570.318305,592.164754,2516.700203,-72472.634111
2570.320873,148.041188,1628.453072,-72012.976812
2570.323441,-444.123565,-4293.194464,-74770.920605
2570.326009,-1924.535449,2812.782580,-75383.797003
2570.328577,-5181.441594,-1924.535449,-73391.948708
2570.331146,-6957.935855,-1924.535449,-73851.606007
2570.333714,-5921.647536,-11695.253884,-72625.853210
2570.336282,-592.164754,-5921.647536,-72472.634111
2570.338850,2220.617826,-2220.617826,-73698.386908
2570.341418,6513.812290,3108.864956,-76456.330700
2570.343986,-1480.411884,2516.700203,-74004.825107
2570.346555,-9770.718434,444.123565,-71246.881314
2570.349123,-6957.935855,-740.205942,-70480.785816
2570.351691,3701.029710,148.041188,-74770.920605
2570.354259,5033.400406,-1924.535449,-75843.454302
2570.356827,-1924.535449,-5625.565159,-74924.139704
2570.359395,-740.205942,-592.164754,-72012.976812
2570.361963,0.000000,-3256.906145,-73545.167808
2570.364532,-2220.617826,444.123565,-74770.920605
2570.367100,3997.112087,10066.800811,-71706.538613
2570.369668,10510.924376,11547.212695,-74158.044206
2570.372236,2960.823768,3701.029710,-77682.083497
2570.374804,-2960.823768,1332.370696,-74004.825107
2570.377372,-2516.700203,0.000000,-69255.033019
2570.379941,3108.864956,-2072.576638,-74158.044206
2570.382509,8734.430116,148.041188,-77222.426198
2570.385077,4441.235652,5329.482782,-74617.701505
2570.387645,-444.123565,7550.100608,-71246.881314
2570.390213,-1184.329507,3552.988522,-73545.167808
2570.392781,148.041188,5921.647536,-72932.291410
2570.395352,1184.329507,5181.441594,-72472.634111
2570.397923,6217.729913,2368.659014,-74158.044206
2570.400494,888.247130,148.041188,-75383.797003
2570.403065,-1480.411884,2664.741391,-72472.634111
2570.405636,1184.329507,-296.082377,-72012.976812
2570.408207,148.041188,-888.247130,-73545.167808
2570.410778,5033.400406,2664.741391,-74004.825107
2570.413349,5033.400406,2516.700203,-73698.386908
2570.415920,6809.894666,4737.318029,-74004.825107
2570.418491,7846.182985,7402.059420,-74770.920605
2570.421062,4885.359217,6217.729913,-74004.825107
2570.423633,-296.082377,4441.235652,-72779.072310
2570.426204,-3849.070898,2072.576638,-74158.044206
2570.428775,592.164754,2516.700203,-73851.606007
2570.431346,7402.059420,5625.565159,-74311.263306
2570.433917,10214.842000,2664.741391,-74004.825107
2570.436488,-148.041188,-592.164754,-72625.853210
2570.439059,-2368.659014,1332.370696,-71859.757712
2570.441629,740.205942,5329.482782,-72319.415011
2570.444200,2368.659014,4589.276840,-76456.330700
2570.446771,888.247130,1332.370696,-75383.797003
2570.449342,1776.494261,5033.400406,-70634.004916
2570.451913,-4293.194464,-7105.977043,-73085.510509
2570.454484,-9030.512492,-9770.718434,-75077.358804
2570.457055,-3997.112087,-4885.359217,-72166.195912
2570.459626,3997.112087,444.123565,-73545.167808
2570.462197,2960.823768,-3997.112087,-77835.302597
2570.464768,-1924.535449,1480.411884,-74158.044206
2570.467339,-6513.812290,1776.494261,-69714.690318
2570.469910,-4145.153275,0.000000,-74158.044206
2570.472481,1332.370696,740.205942,-76762.768900
2570.475052,2960.823768,1332.370696,-73698.386908
2570.477623,740.205942,-3404.947333,-72779.072310
2570.480194,-5773.606348,-6809.894666,-74924.139704
2570.482765,-7105.977043,-5329.482782,-73085.510509
2570.485336,-6069.688724,1480.411884,-72625.853210
2570.487907,740.205942,8290.306550,-73545.167808
2570.490478,6217.729913,-5477.523971,-77069.207099
2570.493048,-2072.576638,-2812.782580,-72012.976812
2570.495619,1036.288319,4145.153275,-71246.881314
2570.498193,-1924.535449,-5921.647536,-75690.235202
2570.500766,-8882.471304,3701.029710,-75537.016103
2570.503339,-6069.688724,-9178.553681,-74004.825107
2570.505913,-3849.070898,-5033.400406,-71553.319513
2570.508486,2812.782580,-9178.553681,-72779.072310
2570.511059,4293.194464,2812.782580,-73238.729609
2570.513632,1776.494261,-1036.288319,-75383.797003
2570.516206,-8290.306550,-1480.411884,-75077.358804
2570.518779,-10955.047942,296.082377,-72319.415011
2570.521352,-296.082377,-1628.453072,-71706.538613
2570.523925,6809.894666,0.000000,-73545.167808
2570.526499,444.123565,-7105.977043,-77528.864398
2570.529072,0.000000,-2220.617826,-72472.634111
2570.531645,-2368.659014,2072.576638,-72472.634111
2570.534219,740.205942,-444.123565,-75230.577904
2570.536792,-888.247130,-1036.288319,-74924.139704
2570.539365,9178.553681,17764.942608,-69255.033019
2570.541938,7402.059420,8290.306550,-76149.892501
2570.544512,148.041188,1332.370696,-77528.864398
2570.547085,-3849.070898,-296.082377,-71553.319513
2570.549658,1776.494261,4589.276840,-68795.375720
2570.552232,5773.606348,-6365.771101,-77375.645298
2570.554805,6661.853478,1924.535449,-76149.892501
2570.557378,1480.411884,8290.306550,-71400.100414
2570.559951,-592.164754,8438.347739,-71706.538613
2570.562525,-592.164754,1924.535449,-76456.330700
2570.565098,5033.400406,5033.400406,-72472.634111
2570.567671,6217.729913,4737.318029,-72166.195912
2570.570245,3997.112087,-888.247130,-75230.577904
2570.572818,-148.041188,1036.288319,-76303.111601
2570.575391,888.247130,1184.329507,-71859.757712
2570.577964,2664.741391,-444.123565,-72625.853210
2570.580538,5773.606348,1480.411884,-74158.044206
2570.583111,4145.153275,2072.576638,-72472.634111
2570.585684,5477.523971,6661.853478,-74311.263306
2570.588257,7105.977043,4293.194464,-76762.768900
2570.590831,4589.276840,11547.212695,-72012.976812
2570.593404,-888.247130,740.205942,-73545.167808
2570.595977,-148.041188,3552.988522,-70940.443115
2570.598551,7105.977043,3404.947333,-74464.482406
2570.601126,7994.224174,5181.441594,-75843.454302
2570.603701,5329.482782,2812.782580,-74924.139704
2570.606276,-2516.700203,-2072.576638,-73698.386908
2570.608852,-2368.659014,1332.370696,-70174.347617
2570.611427,2960.823768,1924.535449,-73851.606007
2570.614002,2664.741391,3552.988522,-76456.330700
2570.616578,1480.411884,2516.700203,-74158.044206
2570.619153,-888.247130,5477.523971,-71859.757712
2570.621728,-8734.430116,-9770.718434,-75996.673402
2570.624304,-8290.306550,-7994.224174,-72319.415011
2570.626879,-3108.864956,-3849.070898,-71859.757712
2570.629454,4885.359217,-1480.411884,-74770.920605
2570.632030,3701.029710,-3552.988522,-77682.083497
2570.634605,-1184.329507,2368.659014,-70940.443115
2570.637181,-8586.388927,2960.823768,-70787.224015
2570.639756,-3701.029710,-2664.741391,-74924.139704
2570.642331,1184.329507,1332.370696,-74770.920605
2570.644907,3108.864956,740.205942,-72625.853210
2570.647482,-740.205942,-2368.659014,-73545.167808
2570.650057,-3552.988522,-7254.018232,-74311.263306
2570.652633,-5625.565159,-3256.906145,-73085.510509
2570.655208,-2220.617826,1036.288319,-72319.415011
2570.657783,1776.494261,2072.576638,-76303.111601
2570.660359,2220.617826,-148.041188,-73851.606007
2570.662934,-592.164754,296.082377,-70787.224015
2570.665509,-148.041188,-1332.370696,-73851.606007
2570.668085,-5329.482782,-4589.276840,-75996.673402
2570.670660,-6661.853478,-2960.823768,-74158.044206
2570.673236,-6513.812290,-7698.141797,-73391.948708
2570.675811,-444.123565,-2220.617826,-71859.757712
2570.678386,1036.288319,-4145.153275,-74924.139704
2570.680962,1036.288319,3701.029710,-73698.386908
2570.683538,-6365.771101,-1628.453072,-74311.263306
2570.686115,-8438.347739,-296.082377,-72932.291410
2570.688692,-1480.411884,1184.329507,-72779.072310
2570.691269,1776.494261,-888.247130,-74158.044206
2570.693845,-3701.029710,-9178.553681,-74924.139704
2570.696422,-444.123565,-1036.288319,-71553.319513
2570.698999,1480.411884,4737.318029,-72472.634111
2570.701576,1036.288319,-2516.700203,-76762.768900
2570.704152,6069.688724,4145.153275,-72932.291410
2570.706729,5773.606348,15988.448347,-70174.347617
2570.709306,1480.411884,4589.276840,-77528.864398
2570.711883,-148.041188,0.000000,-75996.673402
2570.714459,-1036.288319,4441.235652,-69408.252119
2570.717036,5773.606348,2664.741391,-72166.195912
2570.719613,9622.677246,-5477.523971,-77988.521696
2570.722190,6661.853478,3701.029710,-74158.044206
2570.724766,2368.659014,7550.100608,-70940.443115
2570.727343,-4293.194464,5773.606348,-74770.920605
2570.729920,1184.329507,2960.823768,-74617.701505
2570.732497,9178.553681,8734.430116,-70787.224015
2570.735074,8438.347739,1776.494261,-72472.634111
2570.737650,3552.988522,-1036.288319,-75843.454302
2570.740227,148.041188,2072.576638,-73085.510509
2570.742804,-1184.329507,444.123565,-74464.482406
2570.745381,2960.823768,-888.247130,-73238.729609
2570.747957,2516.700203,3701.029710,-70940.443115
2570.750534,6957.935855,6513.812290,-73698.386908
2570.753111,7994.224174,4885.359217,-75537.016103
2570.755688,2220.617826,7994.224174,-73085.510509
2570.758264,-1332.370696,6217.729913,-73238.729609
2570.760841,-2072.576638,1184.329507,-72932.291410
2570.763418,4737.318029,4737.318029,-74158.044206
2570.765995,10658.965565,4441.235652,-73698.386908
2570.768571,4589.276840,3256.906145,-74311.263306
2570.771148,-148.041188,-1924.535449,-74004.825107
2570.773725,-592.164754,1184.329507,-71553.319513
2570.776302,3849.070898,4737.318029,-72779.072310
2570.778878,-592.164754,2072.576638,-75996.673402
2570.781455,592.164754,4145.153275,-73085.510509
2570.784032,-740.205942,2664.741391,-72625.853210
2570.786609,-7698.141797,-6661.853478,-75690.235202
2570.789187,-6513.812290,-8586.388927,-72779.072310
2570.791765,444.123565,-2220.617826,-70634.004916
2570.794342,3108.864956,-4441.235652,-74617.701505
2570.796920,-592.164754,-3701.029710,-78141.740796
2570.799497,-6365.771101,1776.494261,-72779.072310
2570.802075,-8142.265362,2368.659014,-70634.004916
2570.804652,-740.205942,-1184.329507,-75383.797003
2570.807230,2368.659014,-1036.288319,-75690.235202
2570.809807,3108.864956,-444.123565,-72472.634111
2570.812385,-148.041188,-2516.700203,-73545.167808
2570.814963,-6661.853478,-7698.141797,-75690.235202
2570.817540,-5477.523971,-740.205942,-71553.319513
2570.820118,1184.329507,1628.453072,-72779.072310
2570.822695,2368.659014,-148.041188,-75690.235202
2570.825273,888.247130,592.164754,-75077.358804
2570.827850,-2812.782580,2072.576638,-70634.004916
2570.830428,-7105.977043,-4293.194464,-75230.577904
2570.833005,-8290.306550,-5625.565159,-76303.111601
2570.835583,-6661.853478,-7402.059420,-73545.167808
2570.838160,1480.411884,-3404.947333,-73238.729609
2570.840738,3552.988522,-2664.741391,-74464.482406
2570.843316,-2664.741391,1924.535449,-74617.701505
2570.845893,-7402.059420,296.082377,-73085.510509
2570.848471,-8438.347739,1036.288319,-72166.195912
2570.851048,3552.988522,-444.123565,-74004.825107
2570.853626,2664.741391,-2368.659014,-74158.044206
2570.856203,-3997.112087,-5181.441594,-72472.634111
2570.858781,-740.205942,-592.164754,-73085.510509
2570.861358,1480.411884,1776.494261,-75537.016103
2570.863936,-148.041188,-1036.288319,-75537.016103
2570.866514,6957.935855,7402.059420,-71246.881314
2570.869091,6809.894666,11695.253884,-71553.319513
2570.871669,2812.782580,5773.606348,-76149.892501
2570.874246,-2812.782580,3256.906145,-73391.948708
2570.876824,-1776.494261,2960.823768,-71400.100414
2570.879401,2220.617826,-1776.494261,-75383.797003
2570.881979,11399.171507,-1184.329507,-75843.454302
2570.884556,7254.018232,6217.729913,-71093.662214
2570.887134,740.205942,6365.771101,-72166.195912
2570.889712,-2220.617826,888.247130,-75537.016103
2570.892290,-148.041188,7105.977043,-73851.606007
2570.894869,2368.659014,6513.812290,-72319.415011
2570.897447,5329.482782,-1036.288319,-74924.139704
2570.900025,3701.029710,2664.741391,-73085.510509
2570.902603,2368.659014,1480.411884,-73391.948708
2570.905181,-740.205942,1332.370696,-73391.948708
2570.907760,3849.070898,-1924.535449,-73851.606007
2570.910338,5625.565159,7550.100608,-72012.976812
2570.912916,5625.565159,2960.823768,-75996.673402
2570.915494,4293.194464,8734.430116,-75230.577904
2570.918072,2960.823768,6661.853478,-73851.606007
2570.920651,-148.041188,4441.235652,-72012.976812
2570.923229,6513.812290,4885.359217,-73698.386908
2570.925807,9030.512492,2220.617826,-75843.454302
2570.928385,2220.617826,3256.906145,-73085.510509
2570.930964,-5921.647536,-2220.617826,-74770.920605
2570.933542,-296.082377,2516.700203,-71859.757712
2570.936120,4441.235652,740.205942,-74311.263306
2570.938698,3552.988522,5477.523971,-73085.510509
2570.941276,0.000000,2072.576638,-72472.634111
2570.943855,-148.041188,5033.400406,-73238.729609
2570.946433,-7698.141797,-6661.853478,-76149.892501
2570.949011,-8142.265362,-7846.182985,-71859.757712
2570.951589,1776.494261,-1332.370696,-71400.100414
2570.954167,4145.153275,-4441.235652,-74770.920605
2570.956746,148.041188,-4145.153275,-75843.454302
2570.959324,-3997.112087,2516.700203,-72625.853210
2570.961902,-7698.141797,-148.041188,-71553.319513
2570.964480,-3256.906145,-592.164754,-75077.358804
2570.967058,2664.741391,296.082377,-74311.263306
2570.969637,444.123565,1480.411884,-73085.510509
2570.972215,2516.700203,-5329.482782,-74004.825107
2570.974793,-7254.018232,-3997.112087,-73545.167808
2570.977371,-3404.947333,1776.494261,-72319.415011
2570.979949,2220.617826,-592.164754,-74004.825107
2570.982528,-740.205942,5181.441594,-74004.825107
2570.985106,-3404.947333,-4145.153275,-74770.920605
2570.987684,-6365.771101,2072.576638,-71093.662214
2570.990262,-6661.853478,-6069.688724,-73851.606007
2570.992840,-6661.853478,-4145.153275,-73698.386908
2570.995418,296.082377,-740.205942,-72779.072310
2570.997996,592.164754,-7402.059420,-73391.948708
2571.000574,296.082377,1184.329507,-74464.482406
2571.003152,-7698.141797,-4589.276840,-74617.701505
2571.005730,-8290.306550,3552.988522,-71706.538613
2571.008308,0.000000,1924.535449,-72932.291410
2571.010886,4441.235652,2812.782580,-74311.263306
2571.013464,-888.247130,-6069.688724,-75843.454302
2571.016042,-2220.617826,-3256.906145,-70940.443115
2571.018620,296.082377,296.082377,-73238.729609
2571.021198,-1036.288319,-2960.823768,-77375.645298
2571.023776,3997.112087,5181.441594,-73851.606007
2571.026354,10362.883188,13175.665768,-69255.033019
2571.028932,7402.059420,8586.388927,-75230.577904
2571.031510,444.123565,-296.082377,-77375.645298
2571.034088,-1924.535449,4885.359217,-71553.319513
2571.036666,2516.700203,5477.523971,-70021.128517
2571.039244,5477.523971,-3404.947333,-78601.398095
2571.041822,8142.265362,888.247130,-73391.948708
2571.044400,5181.441594,5921.647536,-69714.690318
2571.046978,-2072.576638,6069.688724,-72625.853210
2571.049556,-2960.823768,1036.288319,-77069.207099
2571.052134,888.247130,6513.812290,-72472.634111
2571.054712,5329.482782,3256.906145,-72779.072310
2571.057290,3256.906145,-1036.288319,-74770.920605
2571.059868,-6365.771101,1184.329507,-73851.606007
2571.062446,888.247130,7105.977043,-70787.224015
2571.065024,8142.265362,-1776.494261,-75996.673402
2571.067602,6069.688724,5329.482782,-73085.510509
2571.070180,6661.853478,5181.441594,-73238.729609
2571.072758,2960.823768,7254.018232,-74311.263306
2571.075336,-592.164754,4145.153275,-75537.016103
2571.077914,-296.082377,6513.812290,-71706.538613
2571.080492,5329.482782,9178.553681,-70480.785816
2571.083070,9326.594869,1776.494261,-74311.263306
2571.085648,3997.112087,-1480.411884,-75843.454302
2571.088226,-2220.617826,740.205942,-71093.662214
2571.090804,2960.823768,4145.153275,-72319.415011
2571.093382,2664.741391,-148.041188,-77528.864398
2571.095960,-1332.370696,-740.205942,-74770.920605
2571.098538,444.123565,8586.388927,-68335.718422
2571.101116,-2368.659014,3108.864956,-74311.263306
2571.103694,-7402.059420,-9178.553681,-77988.521696
2571.106272,-4145.153275,-5921.647536,-72166.195912
2571.108850,2220.617826,-740.205942,-69408.252119
2571.111428,2516.700203,-4737.318029,-76915.987999
2571.114006,-3997.112087,-7254.018232,-77222.426198
2571.116583,-8142.265362,3849.070898,-69867.909418
2571.119161,-5625.565159,2220.617826,-73851.606007
2571.121739,-740.205942,-2368.659014,-77375.645298
2571.124317,4885.359217,444.123565,-72779.072310
2571.126895,4145.153275,1332.370696,-71093.662214
2571.129473,-3108.864956,-5773.606348,-76149.892501
2571.132051,-7550.100608,-5773.606348,-74924.139704
2571.134629,-3256.906145,1184.329507,-71093.662214
2571.137207,5625.565159,3108.864956,-74924.139704
2571.139785,4737.318029,-5033.400406,-76456.330700
2571.142363,-3404.947333,2072.576638,-70327.566716
2571.144941,-6513.812290,-2664.741391,-72319.415011
2571.147519,-7846.182985,-4589.276840,-75996.673402
2571.150097,-4589.276840,-7550.100608,-75690.235202
2571.152675,1480.411884,-740.205942,-70480.785816
2571.155253,3849.070898,-1776.494261,-73545.167808
2571.157830,-2516.700203,-7105.977043,-75843.454302
2571.160408,-7402.059420,-1184.329507,-72625.853210
2571.162986,-1480.411884,5329.482782,-71400.100414
2571.165564,1036.288319,592.164754,-77528.864398
2571.168142,-5033.400406,-3997.112087,-75230.577904
2571.170720,0.000000,-148.041188,-69408.252119
2571.173298,3552.988522,1480.411884,-71246.881314
2571.175876,4589.276840,-4145.153275,-78601.398095
2571.178454,3108.864956,1184.329507,-74770.920605
2571.181032,6957.935855,13027.624579,-68795.375720
2571.183610,3849.070898,8734.430116,-75230.577904
2571.186188,-1184.329507,-444.123565,-76609.549800
2571.188766,-888.247130,7105.977043,-68335.718422
2571.191344,5181.441594,6513.812290,-71859.757712
2571.193922,9326.594869,-4441.235652,-79673.931792
2571.196500,7994.224174,592.164754,-75077.358804
2571.199077,1480.411884,8586.388927,-68335.718422
2571.201655,-3552.988522,3404.947333,-73238.729609
2571.204233,-1332.370696,-2220.617826,-77375.645298
2571.206811,5921.647536,8586.388927,-71553.319513
2571.209389,6661.853478,4737.318029,-74004.825107
2571.211967,2072.576638,-5329.482782,-76762.768900
2571.214545,0.000000,2516.700203,-73085.510509
2571.217123,1332.370696,4441.235652,-72625.853210
2571.219701,2220.617826,-1924.535449,-76149.892501
2571.222279,7254.018232,5773.606348,-72779.072310
2571.224857,9622.677246,8142.265362,-71553.319513
2571.227435,5625.565159,7550.100608,-75230.577904
2571.230013,4589.276840,5329.482782,-75843.454302
2571.232591,2220.617826,6069.688724,-72319.415011
2571.235169,5033.400406,5625.565159,-72319.415011
2571.237747,1480.411884,-3404.947333,-76915.987999
2571.240325,-592.164754,1184.329507,-73238.729609
2571.242903,3552.988522,2812.782580,-71093.662214
2571.245481,9918.759623,2664.741391,-75077.358804
2571.248059,2220.617826,-1332.370696,-77528.864398
2571.250637,-3108.864956,2220.617826,-70787.224015
2571.253215,-5033.400406,6513.812290,-70480.785816
2571.255793,-10362.883188,-6365.771101,-77988.521696
2571.258371,-4885.359217,-5773.606348,-73851.606007
2571.260949,2368.659014,-296.082377,-69867.909418
2571.263527,2368.659014,-5921.647536,-77069.207099
2571.266105,-4885.359217,-5477.523971,-76915.987999
2571.268682,-7846.182985,3108.864956,-68335.718422
2571.271260,-7994.224174,1776.494261,-72012.976812
2571.273838,-888.247130,-1480.411884,-77528.864398
2571.276416,2664.741391,-888.247130,-74770.920605
2571.278994,1480.411884,2220.617826,-70480.785816
2571.281572,-2664.741391,-5921.647536,-75996.673402
2571.284150,-9622.677246,-3552.988522,-75690.235202
2571.286728,-1036.288319,5329.482782,-70021.128517
2571.289306,3552.988522,1776.494261,-73698.386908
2571.291884,2072.576638,-5033.400406,-76303.111601
2571.294462,444.123565,0.000000,-72932.291410
2571.297040,-7105.977043,-740.205942,-70327.566716
2571.299618,-7254.018232,-4737.318029,-76149.892501
2571.302195,-4441.235652,-9178.553681,-76456.330700
2571.304772,-1184.329507,-1332.370696,-71706.538613
2571.307349,-888.247130,-5477.523971,-73851.606007
2571.309926,-1776.494261,-4293.194464,-75383.797003
2571.312504,-2516.700203,-296.082377,-71706.538613
2571.315081,296.082377,7402.059420,-72472.634111
2571.317658,-2960.823768,296.082377,-77069.207099
2571.320235,-7994.224174,-6513.812290,-75537.016103
2571.322812,592.164754,3108.864956,-68182.499322
2571.325389,5329.482782,888.247130,-73238.729609
2571.327966,3256.906145,-5329.482782,-79061.055394
2571.330543,6957.935855,9622.677246,-70634.004916
2571.333120,5033.400406,10658.965565,-71400.100414
2571.335697,-2960.823768,2220.617826,-78448.178995
2571.338275,-3108.864956,3701.029710,-73851.606007
2571.340852,1628.453072,5329.482782,-68182.499322
2571.343429,7698.141797,4441.235652,-74004.825107
2571.346006,10658.965565,-3404.947333,-79827.150892
2571.348583,5625.565159,5921.647536,-71859.757712
2571.351160,296.082377,5181.441594,-69561.471218
2571.353737,0.000000,1184.329507,-75690.235202
2571.356314,-592.164754,5477.523971,-73698.386908
2571.358891,8586.388927,9326.594869,-69867.909418
2571.361469,4441.235652,-3256.906145,-75537.016103
2571.364046,-148.041188,592.164754,-75077.358804
2571.366623,888.247130,5033.400406,-72166.195912
2571.369200,296.082377,2072.576638,-72472.634111
2571.371777,6365.771101,1184.329507,-76609.549800
2571.374354,6069.688724,6513.812290,-73085.510509
2571.376931,5329.482782,10066.800811,-72319.415011
2571.379508,6069.688724,3552.988522,-75996.673402
2571.382085,6809.894666,9918.759623,-73391.948708
2571.384662,3849.070898,3256.906145,-71859.757712
2571.387240,-1480.411884,-1480.411884,-74464.482406
2571.389817,-2960.823768,-3701.029710,-74004.825107
2571.392394,5033.400406,5477.523971,-72779.072310
2571.394971,6957.935855,1924.535449,-74464.482406
2571.397548,1776.494261,-296.082377,-76149.892501
2571.400125,-2072.576638,2072.576638,-72166.195912
2571.402702,-7698.141797,2072.576638,-72166.195912
2571.405279,-9474.636058,-8882.471304,-76762.768900
2571.407856,-4441.235652,-6069.688724,-75537.016103
2571.410432,3997.112087,1924.535449,-70787.224015
2571.413009,2960.823768,-8586.388927,-75843.454302
2571.415586,-1036.288319,-3404.947333,-74311.263306
2571.418162,-7994.224174,592.164754,-70940.443115
2571.420739,-7994.224174,2368.659014,-71553.319513
2571.423316,-1332.370696,-1036.288319,-76303.111601
2571.425893,4145.153275,1184.329507,-73698.386908
2571.428469,592.164754,-740.205942,-72012.976812
2571.431046,-1480.411884,-4145.153275,-72166.195912
2571.433623,-5033.400406,-5181.441594,-74924.139704
2571.436199,-1184.329507,5033.400406,-72625.853210
2571.438776,6069.688724,1036.288319,-75996.673402
2571.441353,-3108.864956,-3256.906145,-74464.482406
2571.443929,-4589.276840,444.123565,-72472.634111
2571.446506,-7698.141797,-3849.070898,-73085.510509
2571.449083,-4885.359217,-2960.823768,-74311.263306
2571.451660,1036.288319,-6069.688724,-74004.825107
2571.454236,444.123565,-1036.288319,-72779.072310
2571.456813,-3108.864956,-7994.224174,-74158.044206
2571.459390,-3849.070898,-2220.617826,-74158.044206
2571.461966,-1332.370696,5625.565159,-71859.757712
2571.464543,-2960.823768,2812.782580,-75077.358804
2571.467120,-6365.771101,-2812.782580,-75077.358804
2571.469697,-2368.659014,1332.370696,-70634.004916
2571.472273,4145.153275,1184.329507,-72166.195912
2571.474850,4737.318029,-6957.935855,-78754.617194
2571.477427,5033.400406,4293.194464,-73085.510509
2571.480003,2516.700203,14804.118840,-70174.347617
2571.482580,740.205942,6513.812290,-76456.330700
2571.485157,-2812.782580,-740.205942,-75537.016103
2571.487733,0.000000,7402.059420,-68642.156621
2571.490310,7254.018232,5477.523971,-70940.443115
2571.492887,11103.089130,-2812.782580,-78907.836294
2571.495464,8142.265362,1628.453072,-75537.016103
2571.498040,-3552.988522,6217.729913,-70787.224015
2571.500617,-4885.359217,888.247130,-74004.825107
2571.503194,148.041188,2220.617826,-72932.291410
2571.505770,7550.100608,11695.253884,-71706.538613
2571.508346,5477.523971,-2664.741391,-75077.358804
2571.510922,-1924.535449,-1184.329507,-75230.577904
2571.513498,592.164754,4885.359217,-71859.757712
2571.516073,1776.494261,1924.535449,-74311.263306
2571.518649,3849.070898,592.164754,-74004.825107
2571.521225,8142.265362,6809.894666,-72166.195912
2571.523801,9326.594869,11103.089130,-73545.167808
2571.526376,5181.441594,7105.977043,-77375.645298
2571.528952,4293.194464,5181.441594,-73391.948708
2571.531528,1924.535449,7550.100608,-71093.662214
2571.534104,-5773.606348,-3849.070898,-73238.729609
2571.536679,-1776.494261,-6957.935855,-74924.139704
2571.539255,8438.347739,7550.100608,-71706.538613
2571.541831,8438.347739,5181.441594,-75537.016103
2571.544407,1036.288319,-148.041188,-75537.016103
2571.546982,-6069.688724,4441.235652,-70327.566716
2571.549558,-11251.130318,-2516.700203,-72012.976812
2571.552134,-10658.965565,-6661.853478,-75843.454302
2571.554710,-2812.782580,-4589.276840,-74464.482406
2571.557285,8142.265362,-148.041188,-71400.100414
2571.559861,4441.235652,-6661.853478,-75996.673402
2571.562437,-3404.947333,-4145.153275,-73851.606007
2571.565013,-9770.718434,592.164754,-70327.566716
2571.567588,-7846.182985,592.164754,-72625.853210
2571.570164,-444.123565,-2960.823768,-77988.521696
2571.572740,4885.359217,1480.411884,-73085.510509
2571.575316,5181.441594,-1036.288319,-70940.443115
2571.577891,740.205942,-4737.318029,-73238.729609
2571.580467,-9178.553681,-6513.812290,-75690.235202
2571.583043,-1628.453072,11695.253884,-72319.415011
2571.585619,2664.741391,-5181.441594,-75537.016103
2571.588194,-4145.153275,592.164754,-74464.482406
2571.590770,-4293.194464,-7105.977043,-72932.291410
2571.593346,-5477.523971,-6513.812290,-71859.757712
2571.595922,-1184.329507,-296.082377,-74311.263306
2571.598497,-2368.659014,-8290.306550,-75996.673402
2571.601073,-2368.659014,-3108.864956,-72779.072310
2571.603649,-3997.112087,-4737.318029,-73391.948708
2571.606225,-296.082377,4293.194464,-73698.386908
2571.608800,-296.082377,1036.288319,-74158.044206
2571.611375,-7846.182985,3404.947333,-74158.044206
2571.613950,-4293.194464,-2516.700203,-72932.291410
2571.616525,6661.853478,1924.535449,-73545.167808
2571.619100,4885.359217,-3404.947333,-76303.111601
2571.621675,7254.018232,740.205942,-73851.606007
2571.624250,5329.482782,10807.006753,-71246.881314
2571.626825,0.000000,9030.512492,-75230.577904
2571.629400,-1628.453072,2072.576638,-74924.139704
2571.631974,-1184.329507,7698.141797,-70021.128517
2571.634549,6365.771101,3849.070898,-71246.881314
2571.637124,11251.130318,-3849.070898,-76915.987999
2571.639699,10214.842000,2516.700203,-75690.235202
2571.642274,-2516.700203,7550.100608,-70940.443115
2571.644849,-5477.523971,592.164754,-74004.825107
2571.647424,-296.082377,3404.947333,-74158.044206
2571.649999,5921.647536,3256.906145,-71859.757712
2571.652574,8734.430116,592.164754,-73698.386908
2571.655149,3404.947333,-888.247130,-75077.358804
2571.657724,-296.082377,4441.235652,-74617.701505
2571.660298,-740.205942,2516.700203,-73391.948708
2571.662873,5181.441594,2960.823768,-74464.482406
2571.665448,9622.677246,5921.647536,-72012.976812
2571.668023,9178.553681,12879.583391,-72625.853210
2571.670598,7254.018232,9326.594869,-76456.330700
2571.673173,3404.947333,5477.523971,-75383.797003
2571.675748,-2516.700203,1332.370696,-71859.757712
2571.678323,-3108.864956,-2072.576638,-71706.538613
2571.680898,6365.771101,-1036.288319,-74004.825107
2571.683473,11695.253884,3108.864956,-74924.139704
2571.686048,3849.070898,3552.988522,-76149.892501
2571.688622,-3256.906145,2516.700203,-73085.510509
2571.691197,-8882.471304,2368.659014,-70480.785816
2571.693772,-11251.130318,-6217.729913,-73391.948708
2571.696347,-3701.029710,-7402.059420,-74311.263306
2571.698922,7254.018232,-2516.700203,-73545.167808
2571.701497,5625.565159,-3108.864956,-75537.016103
2571.704072,-1036.288319,-3701.029710,-74770.920605
2571.706647,-8290.306550,-1924.535449,-71706.538613
2571.709222,-11695.253884,444.123565,-71400.100414
2571.711797,-4589.276840,296.082377,-74924.139704
2571.714371,4293.194464,2368.659014,-74924.139704
2571.716945,4293.194464,-1480.411884,-73391.948708
2571.719519,-592.164754,-5181.441594,-74311.263306
2571.722094,-6217.729913,-3108.864956,-72166.195912
2571.724668,-2812.782580,1628.453072,-73545.167808
2571.727242,1184.329507,3404.947333,-74158.044206
2571.729817,-1480.411884,-2368.659014,-74311.263306
2571.732391,-6957.935855,-888.247130,-72625.853210
2571.734965,-6069.688724,-6365.771101,-72319.415011
2571.737540,-5921.647536,-11103.089130,-75690.235202
2571.740114,-4885.359217,-1924.535449,-73545.167808
2571.742688,-3256.906145,-3849.070898,-72166.195912
2571.745262,-1184.329507,-2960.823768,-73698.386908
2571.747837,1924.535449,1480.411884,-73851.606007
2571.750411,-1628.453072,5921.647536,-73545.167808
2571.752985,-10066.800811,-2960.823768,-73698.386908
2571.755560,-2072.576638,1924.535449,-71859.757712
2571.758134,4885.359217,-148.041188,-75077.358804
2571.760708,8142.265362,-1776.494261,-75077.358804
2571.763282,9030.512492,3849.070898,-71093.662214
2571.765857,5921.647536,10955.047942,-70787.224015
2571.768431,1184.329507,8438.347739,-75537.016103
2571.771005,-3256.906145,1036.288319,-76609.549800
2571.773580,-296.082377,7698.141797,-69867.909418
2571.776154,7550.100608,4885.359217,-71706.538613
2571.778728,11399.171507,-592.164754,-77375.645298
2571.781303,7254.018232,-1924.535449,-74770.920605
2571.783877,-2072.576638,7994.224174,-71093.662214
2571.786451,-2220.617826,4145.153275,-74617.701505
2571.789025,1924.535449,2072.576638,-74311.263306
2571.791600,4589.276840,3997.112087,-72932.291410
2571.794174,4441.235652,-1924.535449,-73851.606007
2571.796748,-4145.153275,296.082377,-74464.482406
2571.799323,-2960.823768,5477.523971,-73698.386908
2571.801897,5033.400406,3552.988522,-74924.139704
2571.804471,4737.318029,5477.523971,-72472.634111
2571.807045,10807.006753,6809.894666,-70940.443115
2571.809620,10362.883188,10955.047942,-73851.606007
2571.812194,3108.864956,9622.677246,-77069.207099
2571.814768,-2516.700203,4885.359217,-74158.044206
2571.817341,-4737.318029,-2664.741391,-71859.757712
2571.819914,2220.617826,-4441.235652,-70940.443115
2571.822487,10362.883188,740.205942,-74158.044206
2571.825060,7698.141797,1036.288319,-76456.330700
2571.827634,296.082377,5033.400406,-73851.606007
2571.830207,-5181.441594,5921.647536,-72625.853210
2571.832780,-10510.924376,-888.247130,-73391.948708
2571.835353,-8290.306550,-6069.688724,-71706.538613
2571.837926,3552.988522,-2664.741391,-70327.566716
2571.840499,8734.430116,-4145.153275,-75230.577904
2571.843072,3701.029710,-7698.141797,-78448.178995
2571.845645,-5921.647536,296.082377,-71400.100414
2571.848218,-11547.212695,1924.535449,-69408.252119
2571.850791,-9030.512492,-3404.947333,-74770.920605
2571.853364,-888.247130,-1776.494261,-75230.577904
2571.855937,6217.729913,3552.988522,-72472.634111
2571.858510,2960.823768,-3849.070898,-75537.016103
2571.861083,-4737.318029,-7698.141797,-75537.016103
2571.863656,-1628.453072,1036.288319,-70940.443115
2571.866229,-1036.288319,-740.205942,-72625.853210
2571.868802,-148.041188,2368.659014,-75843.454302
2571.871375,-1184.329507,-6217.729913,-74617.701505
2571.873948,-9770.718434,2072.576638,-70327.566716
2571.876521,-4885.359217,-9326.594869,-74311.263306
2571.879094,-6809.894666,-11399.171507,-74004.825107
2571.881667,-2516.700203,740.205942,-70021.128517
2571.884240,296.082377,-3552.988522,-74158.044206
2571.886813,2072.576638,4441.235652,-76303.111601
2571.889386,-2072.576638,0.000000,-75230.577904
2571.891959,-10658.965565,3404.947333,-70480.785816
2571.894532,-3404.947333,-740.205942,-71553.319513
2571.897105,5625.565159,-444.123565,-75537.016103
2571.899678,7846.182985,-3108.864956,-76456.330700
2571.902251,10955.047942,4885.359217,-72472.634111
2571.904824,6217.729913,6661.853478,-73545.167808
2571.907398,-740.205942,6661.853478,-74770.920605
2571.909971,-2368.659014,6661.853478,-72472.634111
2571.912544,-148.041188,5329.482782,-71553.319513
2571.915117,9326.594869,1924.535449,-74311.263306
2571.917690,12435.459826,444.123565,-76609.549800
2571.920262,6513.812290,4145.153275,-74464.482406
2571.922834,-592.164754,2812.782580,-73238.729609
2571.925406,-3997.112087,2960.823768,-73238.729609
2571.927978,592.164754,0.000000,-74311.263306
2571.930550,5773.606348,1628.453072,-73698.386908
2571.933122,2072.576638,2368.659014,-73545.167808
2571.935695,-1184.329507,1184.329507,-74004.825107
2571.938267,-3849.070898,3256.906145,-73851.606007
2571.940839,5625.565159,3552.988522,-76609.549800
2571.943411,7698.141797,5477.523971,-71859.757712
2571.945983,11251.130318,13175.665768,-70327.566716
2571.948555,7105.977043,9030.512492,-75537.016103
2571.951127,4441.235652,6957.935855,-75537.016103
2571.953700,-6513.812290,-2220.617826,-72625.853210
2571.956272,-4145.153275,1776.494261,-71553.319513
2571.958844,6661.853478,-2812.782580,-73085.510509
2571.961416,11991.336260,-1332.370696,-75383.797003
2571.963988,3849.070898,2220.617826,-74158.044206
2571.966560,-2368.659014,6809.894666,-71706.538613
2571.969132,-8882.471304,888.247130,-74770.920605
2571.971705,-11695.253884,-4441.235652,-74311.263306
2571.974277,-6217.729913,-4885.359217,-72779.072310
2571.976849,2664.741391,-2664.741391,-73851.606007
2571.979421,6809.894666,-5033.400406,-76303.111601
2571.981993,-444.123565,-3849.070898,-75077.358804
2571.984565,-8142.265362,0.000000,-70634.004916
2571.987137,-10807.006753,-1036.288319,-72932.291410
2571.989710,-2812.782580,-592.164754,-75383.797003
2571.992282,0.000000,2368.659014,-73851.606007
2571.994854,1924.535449,740.205942,-73851.606007
2571.997426,-296.082377,-6513.812290,-74464.482406
2571.999998,-4441.235652,1332.370696,-72319.415011
2572.002570,3701.029710,1776.494261,-73851.606007
2572.005142,888.247130,-5477.523971,-74004.825107
2572.007713,-4293.194464,1628.453072,-72012.976812
2572.010285,-7254.018232,-4145.153275,-73391.948708
2572.012857,-11547.212695,-5329.482782,-75230.577904
2572.015429,-6217.729913,-11399.171507,-74004.825107
2572.018001,-2812.782580,-2812.782580,-70940.443115
2572.020572,1924.535449,-6513.812290,-73238.729609
2572.023144,5477.523971,3404.947333,-74770.920605
2572.025716,-3108.864956,7254.018232,-74464.482406
2572.028288,-13767.830521,-1184.329507,-74004.825107
2572.030859,-5477.523971,1628.453072,-72319.415011
2572.033431,6365.771101,-592.164754,-73238.729609
2572.036003,10362.883188,444.123565,-74617.701505
2572.038575,10658.965565,296.082377,-74158.044206
2572.041147,7994.224174,7402.059420,-73238.729609
2572.043718,-444.123565,6217.729913,-75230.577904
2572.046290,-5773.606348,5921.647536,-73851.606007
2572.048862,-1776.494261,4885.359217,-70174.347617
2572.051434,10807.006753,4737.318029,-73085.510509
2572.054006,15396.283594,1036.288319,-76609.549800
2572.056577,8290.306550,4293.194464,-74311.263306
2572.059149,1628.453072,2220.617826,-73085.510509
2572.061721,-1628.453072,740.205942,-73085.510509
2572.064293,-2516.700203,740.205942,-74464.482406
2572.066864,4145.153275,5181.441594,-72472.634111
2572.069436,3849.070898,-2368.659014,-74770.920605
2572.072008,2072.576638,2516.700203,-73698.386908
2572.074580,2812.782580,5181.441594,-74924.139704
2572.077152,6809.894666,2664.741391,-73698.386908
2572.079723,7698.141797,7402.059420,-73085.510509
2572.082295,9474.636058,11547.212695,-72932.291410
2572.084867,5181.441594,9770.718434,-74617.701505
2572.087439,-1776.494261,7846.182985,-73698.386908
2572.090011,-2516.700203,-1184.329507,-73698.386908
2572.092582,1332.370696,-2812.782580,-71553.319513
2572.095154,10955.047942,-1184.329507,-73851.606007
2572.097726,7402.059420,-296.082377,-74924.139704
2572.100298,-2220.617826,3849.070898,-71400.100414
2572.102869,-7994.224174,6513.812290,-72319.415011
2572.105441,-11695.253884,-6661.853478,-77375.645298
2572.108013,-7254.018232,-3997.112087,-73851.606007
2572.110585,5181.441594,-2072.576638,-70940.443115
2572.113157,6661.853478,-5773.606348,-73851.606007
2572.115728,1480.411884,-6957.935855,-77222.426198
2572.118300,-11103.089130,-1480.411884,-72625.853210
2572.120872,-12583.501014,2220.617826,-70480.785816
2572.123444,-3404.947333,-4293.194464,-75537.016103
2572.126015,-888.247130,296.082377,-74770.920605
2572.128585,3997.112087,2368.659014,-73698.386908
2572.131156,-444.123565,-5773.606348,-74158.044206
2572.133727,-8290.306550,592.164754,-73545.167808
2572.136298,2368.659014,2960.823768,-72625.853210
2572.138869,1036.288319,-2072.576638,-74770.920605
2572.141440,148.041188,-1184.329507,-72779.072310
2572.144011,-3108.864956,-5033.400406,-73238.729609
2572.146582,-11547.212695,-5329.482782,-73698.386908
2572.149152,-6513.812290,-9030.512492,-75843.454302
2572.151723,-4589.276840,-6809.894666,-72166.195912
2572.154294,4145.153275,-2960.823768,-73698.386908
2572.156865,4885.359217,1776.494261,-73545.167808
2572.159436,-1924.535449,4293.194464,-75690.235202
2572.162007,-10066.800811,-444.123565,-73085.510509
2572.164578,-6217.729913,6661.853478,-71859.757712
2572.167149,4737.318029,-1776.494261,-75077.358804
2572.169720,11695.253884,148.041188,-74158.044206
2572.172290,11399.171507,4737.318029,-70940.443115
2572.174861,7846.182985,6069.688724,-73391.948708
2572.177432,-3404.947333,3256.906145,-76149.892501
2572.180003,-3701.029710,9326.594869,-73391.948708
2572.182574,-1480.411884,3701.029710,-71246.881314
2572.185145,9326.594869,3997.112087,-73698.386908
2572.187716,12435.459826,740.205942,-75690.235202
2572.190287,3256.906145,7105.977043,-72932.291410
2572.192857,-1184.329507,3997.112087,-72779.072310
2572.195428,-2516.700203,148.041188,-74924.139704
2572.197999,148.041188,2516.700203,-74158.044206
2572.200570,5181.441594,-148.041188,-72625.853210
2572.203141,-1036.288319,1776.494261,-72625.853210
2572.205712,-444.123565,6217.729913,-73238.729609
2572.208282,3997.112087,1924.535449,-77069.207099
2572.210852,7994.224174,4737.318029,-73085.510509
2572.213421,14063.912898,10807.006753,-71246.881314
2572.215991,11547.212695,11251.130318,-73391.948708
2572.218561,-148.041188,6513.812290,-75843.454302
2572.221131,-4589.276840,1628.453072,-72319.415011
2572.223701,-2516.700203,1036.288319,-72012.976812
2572.226271,9918.759623,-1332.370696,-73545.167808
2572.228840,13175.665768,-2960.823768,-75843.454302
2572.231410,2220.617826,-3108.864956,-74004.825107
2572.233980,-2812.782580,8438.347739,-71246.881314
2572.236550,-12583.501014,2072.576638,-74924.139704
2572.239120,-14063.912898,-6217.729913,-75996.673402
2572.241690,592.164754,-3849.070898,-71246.881314
2572.244259,9178.553681,-1628.453072,-72319.415011
2572.246829,6957.935855,-8438.347739,-77375.645298
2572.249399,-2960.823768,-3849.070898,-74311.263306
2572.251969,-13175.665768,-296.082377,-71400.100414
2572.254539,-13027.624579,592.164754,-73085.510509
2572.257109,-1924.535449,-3849.070898,-75230.577904
2572.259678,2072.576638,888.247130,-72012.976812
2572.262248,-148.041188,4885.359217,-72012.976812
2572.264818,-3997.112087,-3701.029710,-76149.892501
2572.267388,-2220.617826,3404.947333,-72012.976812
2572.269958,-4293.194464,-592.164754,-73698.386908
2572.272528,-592.164754,-3552.988522,-75230.577904
2572.275097,-5773.606348,-4293.194464,-71400.100414
2572.277667,-8438.347739,148.041188,-71859.757712
2572.280237,-8142.265362,-11695.253884,-75843.454302
2572.282807,-5033.400406,-9770.718434,-75690.235202
2572.285377,1924.535449,-4441.235652,-71246.881314
2572.287947,6217.729913,5625.565159,-71859.757712
2572.290516,-3701.029710,1036.288319,-75230.577904
2572.293086,-11547.212695,-1184.329507,-73391.948708
2572.295656,-2664.741391,10658.965565,-68795.375720
2572.298226,7105.977043,-1480.411884,-76303.111601
2572.300796,9918.759623,-3701.029710,-77069.207099
2572.303366,10362.883188,3256.906145,-71246.881314
2572.305935,5921.647536,9918.759623,-71246.881314
2572.308505,-2812.782580,4145.153275,-78601.398095
2572.311074,-3404.947333,6069.688724,-72472.634111
2572.313644,1480.411884,8734.430116,-68642.156621
2572.316213,12287.418637,3256.906145,-74617.701505
2572.318782,12583.501014,-3108.864956,-77988.521696
2572.321351,4589.276840,9030.512492,-72012.976812
2572.323920,-4441.235652,4441.235652,-71859.757712
2572.326489,-2072.576638,0.000000,-76609.549800
2572.329059,1332.370696,148.041188,-73391.948708
2572.331628,4589.276840,4293.194464,-70634.004916
2572.334197,4293.194464,-1184.329507,-74004.825107
2572.336766,1628.453072,1628.453072,-75383.797003
2572.339335,2072.576638,7254.018232,-73545.167808
2572.341905,9030.512492,6661.853478,-74158.044206
2572.344474,9622.677246,10510.924376,-73851.606007
2572.347043,7994.224174,8882.471304,-72625.853210
2572.349612,888.247130,10658.965565,-71859.757712
2572.352181,-5625.565159,-740.205942,-75077.358804
2572.354750,0.000000,-2960.823768,-74158.044206
2572.357320,9770.718434,1480.411884,-72625.853210
2572.359889,4441.235652,-1924.535449,-75996.673402
2572.362458,-2220.617826,-1924.535449,-74158.044206
2572.365027,-7105.977043,6809.894666,-70174.347617
2572.367596,-11103.089130,1036.288319,-74311.263306
2572.370166,-8438.347739,-7105.977043,-76609.549800
2572.372735,3108.864956,-3256.906145,-71553.319513
2572.375304,6661.853478,-3404.947333,-71706.538613
2572.377873,3256.906145,-6513.812290,-76456.330700
2572.380442,-7698.141797,-1332.370696,-74924.139704
2572.383011,-13175.665768,296.082377,-70940.443115
2572.385581,-5329.482782,-4885.359217,-74464.482406
2572.388150,1332.370696,-1184.329507,-76149.892501
2572.390719,3701.029710,-2812.782580,-73851.606007
2572.393288,-1628.453072,1184.329507,-71706.538613
2572.395857,-3108.864956,-1924.535449,-76456.330700
2572.398426,-4885.359217,148.041188,-73851.606007
2572.400996,-296.082377,3701.029710,-72012.976812
2572.403565,296.082377,-5181.441594,-74617.701505
2572.406134,-8882.471304,-2368.659014,-71859.757712
2572.408703,-10214.842000,-9474.636058,-73545.167808
2572.411272,-7254.018232,-8438.347739,-74158.044206
2572.413841,-3108.864956,-6957.935855,-74311.263306
2572.416410,5329.482782,1776.494261,-72932.291410
2572.418978,2516.700203,1924.535449,-73238.729609
2572.421547,-8438.347739,-148.041188,-73238.729609
2572.424116,-6069.688724,4145.153275,-72472.634111
2572.426684,1036.288319,4885.359217,-72779.072310
2572.429253,9474.636058,592.164754,-77528.864398
2572.431821,10510.924376,-888.247130,-73698.386908
2572.434390,8142.265362,9030.512492,-70174.347617
2572.436959,444.123565,3256.906145,-75077.358804
2572.439527,-2812.782580,4293.194464,-75843.454302
2572.442096,-2072.576638,8290.306550,-71706.538613
2572.444665,6365.771101,3552.988522,-72472.634111
2572.447233,12583.501014,2812.782580,-75537.016103
2572.449802,10066.800811,592.164754,-76303.111601
2572.452370,-296.082377,4293.194464,-72012.976812
2572.454939,888.247130,4441.235652,-72779.072310
2572.457508,2960.823768,-888.247130,-75537.016103
2572.460076,1480.411884,3108.864956,-72472.634111
2572.462645,5329.482782,-1924.535449,-74311.263306
2572.465214,-148.041188,4293.194464,-74004.825107
2572.467782,1036.288319,3701.029710,-75537.016103
2572.470351,9178.553681,7698.141797,-73238.729609
2572.472919,12583.501014,11695.253884,-71246.881314
2572.475488,10066.800811,10214.842000,-74617.701505
2572.478057,1480.411884,6957.935855,-74464.482406
2572.480625,-7994.224174,-2072.576638,-73698.386908
2572.483194,1628.453072,2072.576638,-71859.757712
2572.485763,8586.388927,-1480.411884,-76456.330700
2572.488331,6217.729913,-2960.823768,-74924.139704
2572.490900,296.082377,-1036.288319,-72472.634111
2572.493469,-4737.318029,5329.482782,-70787.224015
2572.496037,-12139.377449,-2960.823768,-75690.235202
2572.498606,-9326.594869,-6217.729913,-75537.016103
2572.501174,2072.576638,-1036.288319,-70480.785816
2572.503743,5181.441594,-5625.565159,-75077.358804
2572.506312,1776.494261,-5181.441594,-75843.454302
2572.508880,-7698.141797,-2960.823768,-71706.538613
2572.511449,-10955.047942,3108.864956,-70787.224015
2572.514018,-3404.947333,-5625.565159,-75996.673402
2572.516588,1036.288319,1184.329507,-72932.291410
2572.519156,2812.782580,3404.947333,-71706.538613
2572.521723,-1184.329507,-7698.141797,-75843.454302
2572.524291,-3108.864956,3256.906145,-73851.606007
2572.526858,4737.318029,5033.400406,-72012.976812
2572.529426,-3849.070898,-7105.977043,-75230.577904
2572.531993,-9474.636058,-2220.617826,-74004.825107
2572.534561,-9326.594869,-10214.842000,-72932.291410
2572.537128,-8882.471304,-5329.482782,-72012.976812
2572.539696,-2516.700203,-10955.047942,-76149.892501
2572.542263,5477.523971,592.164754,-73238.729609
2572.544831,6513.812290,888.247130,-72472.634111
2572.547398,-5773.606348,1924.535449,-75383.797003
2572.549966,-9178.553681,-1332.370696,-73391.948708
2572.552533,-3552.988522,7402.059420,-71400.100414
2572.555101,8438.347739,2960.823768,-75996.673402
2572.557668,12139.377449,-2664.741391,-75843.454302
2572.560236,11843.295072,6661.853478,-70327.566716
2572.562803,3552.988522,5921.647536,-72166.195912
2572.565371,-4589.276840,4293.194464,-75537.016103
2572.567938,-6809.894666,4589.276840,-74464.482406
2572.570506,2220.617826,5921.647536,-71093.662214
2572.573073,11103.089130,6661.853478,-73698.386908
2572.575641,12731.542202,-2516.700203,-77835.302597
2572.578208,-148.041188,4589.276840,-71859.757712
2572.580776,592.164754,1924.535449,-73238.729609
2572.583343,-3108.864956,1776.494261,-73698.386908
2572.585911,-296.082377,2664.741391,-74617.701505
2572.588478,6957.935855,-2812.782580,-72779.072310
2572.591046,-1184.329507,7105.977043,-73698.386908
2572.593613,5181.441594,-888.247130,-74924.139704
2572.596181,9326.594869,11251.130318,-71859.757712
2572.598748,12583.501014,9178.553681,-73391.948708
2572.601316,6217.729913,8438.347739,-75996.673402
2572.603883,-5033.400406,4737.318029,-73851.606007
2572.606451,-6809.894666,-148.041188,-72779.072310
2572.609018,4145.153275,3701.029710,-71093.662214
2572.611586,9178.553681,-2220.617826,-76762.768900
2572.614153,7254.018232,-2664.741391,-74617.701505
2572.616721,148.041188,-444.123565,-71859.757712
2572.619288,-6365.771101,5181.441594,-71859.757712
2572.621854,-14063.912898,-5329.482782,-76303.111601
2572.624421,-5773.606348,-3404.947333,-71246.881314
2572.626988,7550.100608,740.205942,-70940.443115
2572.629554,8290.306550,-7254.018232,-76149.892501
2572.632121,3997.112087,-5033.400406,-75230.577904
2572.634688,-9030.512492,-1184.329507,-70327.566716
2572.637254,-12879.583391,1924.535449,-72012.976812
2572.639821,-7105.977043,-6661.853478,-77682.083497
2572.642388,444.123565,444.123565,-73238.729609
2572.644954,3997.112087,3997.112087,-70940.443115
2572.647521,-592.164754,-7846.182985,-74924.139704
2572.650088,-7550.100608,-2072.576638,-74311.263306
2572.652654,-1036.288319,6217.729913,-71706.538613
2572.655221,-3256.906145,-5329.482782,-74924.139704
2572.657788,-9622.677246,-4293.194464,-74158.044206
2572.660355,-9178.553681,-10214.842000,-73085.510509
2572.662921,-7254.018232,-5181.441594,-71093.662214
2572.665488,-1332.370696,-9622.677246,-75537.016103
2572.668055,5625.565159,2516.700203,-72779.072310
2572.670621,2960.823768,1332.370696,-73545.167808
2572.673188,-12879.583391,-1776.494261,-74004.825107
2572.675755,-7550.100608,4737.318029,-72779.072310
2572.678321,4145.153275,3256.906145,-72012.976812
2572.680888,9622.677246,2220.617826,-76303.111601
2572.683455,12731.542202,1036.288319,-74924.139704
2572.686021,10807.006753,6957.935855,-70940.443115
2572.688588,1036.288319,4589.276840,-74464.482406
2572.691155,-5033.400406,2516.700203,-74770.920605
2572.693721,-5625.565159,7254.018232,-73238.729609
2572.696288,3997.112087,4145.153275,-72472.634111
2572.698855,15544.324782,4145.153275,-74617.701505
2572.701421,10510.924376,2516.700203,-75843.454302
2572.703988,740.205942,4441.235652,-72625.853210
2572.706555,-2960.823768,5181.441594,-71246.881314
2572.709122,148.041188,-2516.700203,-75690.235202
2572.711688,1036.288319,1628.453072,-72779.072310
2572.714255,6661.853478,4737.318029,-73851.606007
2572.716822,0.000000,1924.535449,-73851.606007
2572.719388,6365.771101,6809.894666,-75843.454302
2572.721925,11695.253884,8142.265362,-72932.291410
2572.724462,7994.224174,13767.830521,-71706.538613
2572.726999,-1184.329507,4441.235652,-76149.892501
2572.729536,-5181.441594,3552.988522,-73391.948708
2572.732072,592.164754,148.041188,-70940.443115
2572.734609,10214.842000,2960.823768,-73851.606007
2572.737146,9030.512492,-3997.112087,-76149.892501
2572.739683,1036.288319,-1332.370696,-72472.634111
2572.742220,-4885.359217,2516.700203,-71706.538613
2572.744757,-14063.912898,-4145.153275,-76762.768900
2572.747293,-12583.501014,-4145.153275,-74158.044206
2572.749830,1184.329507,-1776.494261,-70787.224015
2572.752367,8586.388927,-2516.700203,-72932.291410
2572.754904,5329.482782,-7402.059420,-77835.302597
2572.757441,-3256.906145,-1184.329507,-73238.729609
2572.759978,-13027.624579,-296.082377,-71093.662214
2572.762514,-7698.141797,-740.205942,-74617.701505
2572.765051,1036.288319,-5477.523971,-76456.330700
2572.767588,3256.906145,5625.565159,-71093.662214
2572.770125,2812.782580,-3256.906145,-74464.482406
2572.772662,-4441.235652,-444.123565,-75690.235202
2572.775198,2220.617826,3997.112087,-72932.291410
2572.777735,-4145.153275,-4737.318029,-72779.072310
2572.780272,-7846.182985,-3108.864956,-74464.482406
2572.782809,-8734.430116,-12435.459826,-74617.701505
2572.785346,-8734.430116,-5181.441594,-71246.881314
2572.787883,-1184.329507,-8882.471304,-73851.606007
2572.790419,6661.853478,0.000000,-74770.920605
2572.792956,-740.205942,592.164754,-74158.044206
2572.795493,-12731.542202,-296.082377,-72166.195912
2572.798030,-7105.977043,7550.100608,-72319.415011
2572.800567,3256.906145,1480.411884,-75843.454302
2572.803104,8438.347739,1184.329507,-75077.358804
2572.805640,13323.706956,4589.276840,-72932.291410
2572.808177,8882.471304,8734.430116,-71706.538613
2572.810714,1628.453072,148.041188,-75996.673402
2572.813251,-2812.782580,4737.318029,-73391.948708
2572.815788,-5033.400406,7105.977043,-71706.538613
2572.818325,4885.359217,2368.659014,-74464.482406
2572.820861,12731.542202,3108.864956,-74617.701505
2572.823403,7994.224174,5181.441594,-73851.606007
2572.825945,-148.041188,4885.359217,-72472.634111
2572.828487,-1036.288319,3849.070898,-75077.358804
2572.831029,888.247130,-1628.453072,-73391.948708
2572.833570,-2664.741391,2072.576638,-73391.948708
2572.836112,3404.947333,2960.823768,-73698.386908
2572.838654,7254.018232,2516.700203,-74924.139704
2572.841196,10807.006753,12879.583391,-72932.291410
2572.843738,10955.047942,8734.430116,-74770.920605
2572.846279,6957.935855,10807.006753,-71706.538613
2572.848821,-1332.370696,3552.988522,-75383.797003
2572.851363,-6809.894666,6069.688724,-72166.195912
2572.853905,1332.370696,-1184.329507,-75230.577904
2572.856447,12435.459826,740.205942,-73698.386908
2572.858988,4589.276840,-2220.617826,-74311.263306
2572.861530,-2960.823768,740.205942,-70634.004916
2572.864072,-8438.347739,-592.164754,-73391.948708
2572.866614,-14952.160028,-3701.029710,-75690.235202
2572.869156,-6513.812290,-5477.523971,-75077.358804
2572.871697,3997.112087,-296.082377,-71093.662214
2572.874239,8586.388927,-4589.276840,-74158.044206
2572.876781,3701.029710,-4589.276840,-74311.263306
2572.879323,-6957.935855,444.123565,-72625.853210
2572.881865,-12435.459826,-1776.494261,-73545.167808
2572.884406,-5477.523971,-3997.112087,-74924.139704
2572.886948,1776.494261,-444.123565,-72472.634111
2572.889490,-888.247130,-2072.576638,-73238.729609
2572.892032,-592.164754,2368.659014,-73698.386908
2572.894574,-148.041188,-1924.535449,-75230.577904
2572.897115,-1332.370696,1332.370696,-73391.948708
2572.899657,-3108.864956,-4441.235652,-71246.881314
2572.902199,-8882.471304,-5329.482782,-73698.386908
2572.904741,-9770.718434,-14359.995275,-74311.263306
2572.907283,-3552.988522,-9474.636058,-74004.825107
2572.909824,5921.647536,2812.782580,-71859.757712
2572.912366,3108.864956,1480.411884,-75690.235202
2572.914908,-7105.977043,-3256.906145,-74464.482406
2572.917450,-7994.224174,4441.235652,-71093.662214
2572.919992,-592.164754,4737.318029,-71859.757712
2572.922533,6217.729913,296.082377,-78141.740796
2572.925080,8734.430116,2516.700203,-74311.263306
2572.927626,10955.047942,7846.182985,-70174.347617
2572.930172,6513.812290,5921.647536,-72932.291410
2572.932718,-6217.729913,3256.906145,-73698.386908
2572.935265,-2812.782580,7402.059420,-69561.471218
2572.937811,6957.935855,3849.070898,-73085.510509
2572.940357,14211.954086,1184.329507,-77835.302597
2572.942903,13027.624579,3404.947333,-73851.606007
2572.945450,740.205942,5181.441594,-71093.662214
2572.947996,-3404.947333,5181.441594,-74158.044206
2572.950542,2812.782580,-2516.700203,-76149.892501
2572.953088,-592.164754,1628.453072,-71246.881314
2572.955635,2664.741391,7254.018232,-74924.139704
2572.958181,7254.018232,1036.288319,-76149.892501
2572.960727,9770.718434,9030.512492,-72779.072310
2572.963273,8586.388927,10807.006753,-71859.757712
2572.965820,2368.659014,12879.583391,-73851.606007
2572.968366,-3552.988522,-444.123565,-76762.768900
2572.970912,-1924.535449,3108.864956,-71400.100414
2572.973458,8142.265362,2664.741391,-73391.948708
2572.976005,10807.006753,-888.247130,-75537.016103
2572.978551,1332.370696,-5329.482782,-74770.920605
2572.981097,-7254.018232,2960.823768,-70327.566716
2572.983643,-13175.665768,-1924.535449,-74924.139704
2572.986190,-13915.871710,-6957.935855,-77375.645298
2572.988736,-1036.288319,-740.205942,-70787.224015
2572.991282,6513.812290,148.041188,-70787.224015
2572.993829,7402.059420,-7402.059420,-77835.302597
2572.996375,-1480.411884,-4885.359217,-74158.044206
2572.998921,-9770.718434,4589.276840,-69714.690318
2573.001467,-11547.212695,-3256.906145,-74158.044206
2573.004014,740.205942,-6069.688724,-76762.768900
2573.006560,3701.029710,3108.864956,-70634.004916
2573.009106,592.164754,888.247130,-71400.100414
2573.011652,-740.205942,-888.247130,-75230.577904
2573.014199,-444.123565,148.041188,-74770.920605
2573.016745,-3997.112087,-296.082377,-71859.757712
2573.019291,-5773.606348,-3849.070898,-73238.729609
2573.021837,-9326.594869,-12583.501014,-75383.797003
2573.024384,-7105.977043,-9326.594869,-73698.386908
2573.026933,5329.482782,-3108.864956,-73698.386908
2573.029483,5921.647536,1036.288319,-75690.235202
2573.032033,-5625.565159,-1924.535449,-74924.139704
2573.034582,-10214.842000,2220.617826,-69714.690318
2573.037132,-3552.988522,5477.523971,-72166.195912
2573.039681,6365.771101,3256.906145,-77528.864398
2573.042231,8586.388927,148.041188,-75077.358804
2573.044781,12287.418637,9770.718434,-70480.785816
2573.047330,6809.894666,4885.359217,-73391.948708
2573.049880,-4145.153275,1332.370696,-75690.235202
2573.052430,-5625.565159,6957.935855,-70940.443115
2573.054979,-1332.370696,4293.194464,-72625.853210
2573.057529,8438.347739,1036.288319,-76762.768900
2573.060079,13767.830521,2664.741391,-74924.139704
2573.062628,6661.853478,8734.430116,-70021.128517
2573.065178,-1184.329507,5181.441594,-73085.510509
2573.067727,-1036.288319,-3552.988522,-75843.454302
2573.070277,2960.823768,4737.318029,-71706.538613
2573.072827,4145.153275,3256.906145,-73851.606007
2573.075376,3256.906145,444.123565,-76915.987999
2573.077926,10807.006753,8290.306550,-73085.510509
2573.080476,10955.047942,14211.954086,-70634.004916
2573.083025,6513.812290,10066.800811,-74158.044206
2573.085575,-2072.576638,1036.288319,-75230.577904
2573.088125,-1924.535449,6217.729913,-72472.634111
2573.090674,6069.688724,4737.318029,-73238.729609
2573.093224,8438.347739,-1036.288319,-77375.645298
2573.095774,3256.906145,-5033.400406,-74004.825107
2573.098323,-2664.741391,1924.535449,-69561.471218
2573.100873,-9918.759623,-1036.288319,-74004.825107
2573.103422,-12731.542202,-6661.853478,-77835.302597
2573.105972,-5773.606348,-2960.823768,-72779.072310
2573.108522,3849.070898,1924.535449,-71400.100414
2573.111071,6217.729913,-8586.388927,-76915.987999
2573.113621,148.041188,-3256.906145,-74770.920605
2573.116171,-8142.265362,3256.906145,-68948.594820
2573.118720,-10807.006753,-1184.329507,-73238.729609
2573.121270,1184.329507,-6809.894666,-76609.549800
2573.123820,2516.700203,1480.411884,-72472.634111
2573.126369,-3849.070898,2220.617826,-71706.538613
2573.128922,-1036.288319,-2072.576638,-76915.987999
2573.131475,-3108.864956,0.000000,-73698.386908
2573.134027,-2664.741391,2516.700203,-71093.662214
2573.136580,-4441.235652,-5033.400406,-72779.072310
2573.139133,-8290.306550,-11991.336260,-75690.235202
2573.141685,-3701.029710,-11251.130318,-74924.139704
2573.144238,-592.164754,-740.205942,-73391.948708
2573.146791,2960.823768,-296.082377,-75230.577904
2573.149343,-5625.565159,-148.041188,-73698.386908
2573.151896,-7550.100608,740.205942,-71246.881314
2573.154449,1184.329507,8734.430116,-71553.319513
2573.157001,7994.224174,296.082377,-77988.521696
2573.159554,9770.718434,3256.906145,-75230.577904
2573.162107,10658.965565,8142.265362,-71553.319513
2573.164660,3552.988522,3701.029710,-73238.729609
2573.167212,-2664.741391,3849.070898,-74617.701505
2573.169765,-3552.988522,7402.059420,-70940.443115
2573.172318,2664.741391,1924.535449,-74464.482406
2573.174870,9178.553681,1628.453072,-76609.549800
2573.177423,12879.583391,4589.276840,-74464.482406
2573.179976,1332.370696,5625.565159,-71859.757712
2573.182528,-5329.482782,-1480.411884,-74004.825107
2573.185081,-2812.782580,5773.606348,-72779.072310
2573.187634,7550.100608,3997.112087,-71553.319513
2573.190186,3552.988522,1332.370696,-74617.701505
2573.192739,6217.729913,6513.812290,-76456.330700
2573.195292,7994.224174,6217.729913,-73085.510509
2573.197844,7254.018232,16728.654289,-69255.033019
2573.200397,0.000000,2516.700203,-75843.454302
2573.202950,-148.041188,8142.265362,-71553.319513
2573.205502,1036.288319,296.082377,-74924.139704
2573.208055,12879.583391,7254.018232,-73545.167808
2573.210608,9030.512492,-3552.988522,-77682.083497
2573.213161,-1184.329507,-2812.782580,-72472.634111
2573.215713,-9030.512492,148.041188,-71093.662214
2573.218266,-13767.830521,-5625.565159,-74617.701505
2573.220819,-8734.430116,-5625.565159,-76456.330700
2573.223371,2516.700203,-296.082377,-70787.224015
2573.225924,8734.430116,-592.164754,-73238.729609
2573.228477,3256.906145,-7550.100608,-77528.864398
2573.231031,-5477.523971,-1776.494261,-72625.853210
2573.233586,-15100.201217,3552.988522,-70327.566716
2573.236140,-13175.665768,-3552.988522,-74004.825107
2573.238695,2664.741391,-3849.070898,-75077.358804
2573.241249,5477.523971,444.123565,-72932.291410
2573.243804,148.041188,-3849.070898,-73391.948708
2573.246358,-1924.535449,2220.617826,-75383.797003
2573.248913,-6809.894666,-2220.617826,-73238.729609
2573.251467,-9770.718434,-1036.288319,-71859.757712
2573.254022,-7550.100608,-10214.842000,-74924.139704
2573.256576,-5625.565159,-10214.842000,-73851.606007
2573.259131,2960.823768,-4885.359217,-72625.853210
2573.261685,4145.153275,-2516.700203,-74311.263306
2573.264239,-4737.318029,1184.329507,-73391.948708
2573.266794,-12435.459826,-2072.576638,-72472.634111
2573.269348,-4441.235652,10807.006753,-70174.347617
2573.271903,6365.771101,-1480.411884,-76762.768900
2573.274457,11251.130318,4589.276840,-75077.358804
2573.277012,13323.706956,7105.977043,-71859.757712
2573.279566,9178.553681,9178.553681,-71859.757712
2573.282121,-3256.906145,-1776.494261,-76762.768900
2573.284675,-5625.565159,3552.988522,-73238.729609
2573.287230,-592.164754,5477.523971,-71093.662214
2573.289784,7698.141797,1332.370696,-75690.235202
2573.292339,16432.571912,2072.576638,-75843.454302
2573.294893,5181.441594,5773.606348,-72625.853210
2573.297448,-148.041188,3404.947333,-74158.044206
2573.300002,-2516.700203,2516.700203,-74158.044206
2573.302557,1332.370696,148.041188,-73851.606007
2573.305111,888.247130,3701.029710,-72319.415011
2573.307666,7846.182985,3552.988522,-75843.454302
2573.310220,10362.883188,7846.182985,-74311.263306
2573.312775,8882.471304,13915.871710,-71706.538613
2573.315329,740.205942,4885.359217,-73391.948708
2573.317884,-2220.617826,4441.235652,-72779.072310
2573.320438,296.082377,1184.329507,-73085.510509
2573.322993,9918.759623,8438.347739,-73851.606007
2573.325547,7254.018232,-1332.370696,-76762.768900
2573.328102,2072.576638,-3849.070898,-72779.072310
2573.330656,-5921.647536,-296.082377,-69255.033019
2573.333213,-15396.283594,-6661.853478,-75230.577904
2573.335770,-10658.965565,-7550.100608,-75537.016103
2573.338327,1036.288319,888.247130,-71246.881314
2573.340883,6217.729913,0.000000,-73391.948708
2573.343440,6069.688724,-6513.812290,-76609.549800
2573.345997,-2812.782580,-2072.576638,-72472.634111
2573.348554,-16432.571912,5033.400406,-69714.690318
2573.351110,-6957.935855,-6365.771101,-76915.987999
2573.353667,1184.329507,-5181.441594,-75383.797003
2573.356224,4145.153275,3404.947333,-70021.128517
2573.358781,1036.288319,-2220.617826,-74158.044206
2573.361338,-6365.771101,-3997.112087,-75843.454302
2573.363894,-6661.853478,444.123565,-71859.757712
2573.366451,-9622.677246,-2812.782580,-70787.224015
2573.369008,-7846.182985,-10955.047942,-75843.454302
2573.371565,-1776.494261,-11695.253884,-74158.044206
2573.374121,4441.235652,888.247130,-71093.662214
2573.376678,2516.700203,-3108.864956,-74158.044206
2573.379235,-8290.306550,-3552.988522,-75690.235202
2573.381792,-9030.512492,4589.276840,-70021.128517
2573.384349,2368.659014,8438.347739,-73238.729609
2573.386905,7994.224174,888.247130,-78448.178995
2573.389462,13471.748144,4145.153275,-74464.482406
2573.392019,11991.336260,12139.377449,-68642.156621
2573.394576,3849.070898,3552.988522,-75230.577904
2573.397133,-4885.359217,-1184.329507,-76915.987999
2573.399689,-4145.153275,7254.018232,-70787.224015
2573.402246,592.164754,5477.523971,-71553.319513
2573.404803,9918.759623,-1924.535449,-78294.959896
2573.407360,11843.295072,4885.359217,-73391.948708
2573.409916,2664.741391,7550.100608,-70940.443115
2573.412473,-2516.700203,2960.823768,-73545.167808
2573.415030,1924.535449,-2960.823768,-76303.111601
2573.417587,4737.318029,4885.359217,-70940.443115
2573.420144,4145.153275,7105.977043,-73085.510509
2573.422700,8586.388927,2812.782580,-78294.959896
2573.425257,9178.553681,9178.553681,-72625.853210
2573.427814,3997.112087,14211.954086,-70174.347617
2573.430371,-2664.741391,2220.617826,-74464.482406
2573.432928,0.000000,-444.123565,-75077.358804
2573.435486,8142.265362,9918.759623,-72779.072310
2573.438044,8142.265362,2072.576638,-76303.111601
2573.440603,296.082377,-6365.771101,-75843.454302
2573.443161,-6069.688724,-1332.370696,-69408.252119
2573.445720,-9918.759623,-1480.411884,-69561.471218
2573.448278,-11547.212695,-9326.594869,-77528.864398
2573.450837,-3108.864956,-6217.729913,-76303.111601
2573.453395,7254.018232,2220.617826,-70940.443115
2573.455954,4885.359217,-4145.153275,-75690.235202
2573.458512,-4589.276840,-4589.276840,-75077.358804
2573.461070,-8438.347739,3256.906145,-68642.156621
2573.463629,-6957.935855,-888.247130,-72319.415011
2573.466187,5181.441594,-7402.059420,-77835.302597
2573.468746,1924.535449,1184.329507,-74004.825107
2573.471304,-740.205942,7550.100608,-71246.881314
2573.473863,-7254.018232,-6661.853478,-75690.235202
2573.476421,-10807.006753,-3701.029710,-74770.920605
2573.478980,-5033.400406,-3997.112087,-71400.100414
2573.481538,-4737.318029,-1776.494261,-70021.128517
2573.484096,-1184.329507,-11843.295072,-77222.426198
2573.486655,2220.617826,-5773.606348,-75383.797003
2573.489213,1628.453072,-296.082377,-72472.634111
2573.491772,-10214.842000,-2220.617826,-74311.263306
2573.494330,-13323.706956,-3108.864956,-73238.729609
2573.496889,444.123565,10066.800811,-70634.004916
2573.499447,10510.924376,7254.018232,-76303.111601
2573.502006,10807.006753,740.205942,-77375.645298
2573.504564,11547.212695,10658.965565,-70480.785816
2573.507122,888.247130,5625.565159,-72012.976812
2573.509681,-6809.894666,1036.288319,-76456.330700
2573.512239,-5921.647536,2812.782580,-72932.291410
2573.514798,2664.741391,4589.276840,-70480.785816
2573.517334,11991.336260,1776.494261,-75077.358804
2573.519865,16580.613101,-148.041188,-77375.645298
2573.522396,3108.864956,5477.523971,-72779.072310
2573.524926,-2368.659014,3997.112087,-72625.853210
2573.527457,148.041188,-1924.535449,-74311.263306
2573.529988,3997.112087,1184.329507,-72625.853210
2573.532519,9918.759623,9178.553681,-70940.443115
2573.535050,13027.624579,7994.224174,-78294.959896
2573.537581,7994.224174,8734.430116,-75537.016103
2573.540111,3404.947333,7846.182985,-70634.004916
2573.542642,-3997.112087,7254.018232,-70634.004916
2573.545173,-1036.288319,296.082377,-74464.482406
2573.547704,11103.089130,4737.318029,-75230.577904
2573.550235,11991.336260,4737.318029,-75537.016103
2573.552765,-148.041188,-7254.018232,-74770.920605
2573.555296,-5477.523971,592.164754,-70634.004916
2573.557827,-15100.201217,-5477.523971,-72319.415011
2573.560358,-13471.748144,-8438.347739,-75843.454302
2573.562889,-1924.535449,-5329.482782,-75996.673402
2573.565420,6365.771101,3997.112087,-72472.634111
2573.567950,7402.059420,-4737.318029,-75537.016103
2573.570481,-148.041188,-2516.700203,-73851.606007
2573.573012,-11399.171507,1184.329507,-71553.319513
2573.575543,-8290.306550,-2812.782580,-74464.482406
2573.578074,148.041188,1184.329507,-74617.701505
2573.580604,1184.329507,-4885.359217,-75230.577904
2573.583135,-740.205942,3701.029710,-71093.662214
2573.585666,-148.041188,-2368.659014,-73698.386908
2573.588197,-6365.771101,-1924.535449,-72932.291410
2573.590728,-7550.100608,-5921.647536,-73698.386908
2573.593259,-6365.771101,-6069.688724,-71400.100414
2573.595789,740.205942,-6513.812290,-75690.235202
2573.598320,2664.741391,-5477.523971,-76149.892501
2573.600851,-888.247130,1036.288319,-72932.291410
2573.603382,-11399.171507,-6661.853478,-71553.319513
2573.605913,-4589.276840,8142.265362,-71246.881314
2573.608443,5477.523971,2516.700203,-74924.139704
2573.610974,12139.377449,7105.977043,-76762.768900
2573.613505,11251.130318,5477.523971,-74158.044206
2573.616036,8586.388927,10658.965565,-71706.538613
2573.618573,-1480.411884,2812.782580,-74464.482406
2573.621111,-4293.194464,1036.288319,-75077.358804
2573.623649,-740.205942,5773.606348,-70787.224015
2573.626186,6957.935855,2220.617826,-74464.482406
2573.628724,12731.542202,-740.205942,-76303.111601
2573.631261,6957.935855,3997.112087,-73851.606007
2573.633799,-4145.153275,11399.171507,-71706.538613
2573.636336,-2664.741391,-1184.329507,-75230.577904
2573.638874,296.082377,-296.082377,-72166.195912
2573.641411,6957.935855,9622.677246,-72012.976812
2573.643949,11251.130318,3552.988522,-76915.987999
2573.646487,7698.141797,8438.347739,-76303.111601
2573.649024,1332.370696,10807.006753,-71706.538613
2573.651562,-3701.029710,4441.235652,-70480.785816
2573.654099,-2072.576638,2072.576638,-74004.825107
2573.656637,8734.430116,6365.771101,-73391.948708
2573.659174,15248.242405,9326.594869,-74770.920605
2573.661712,6661.853478,-3701.029710,-77835.302597
2573.664250,-4737.318029,-3552.988522,-70021.128517
2573.666787,-13767.830521,-3701.029710,-70174.347617
2573.669325,-15544.324782,-8142.265362,-75230.577904
2573.671862,-5033.400406,-6809.894666,-76149.892501
2573.674400,8882.471304,2368.659014,-72166.195912
2573.676937,8438.347739,-444.123565,-74311.263306
2573.679475,1628.453072,-3552.988522,-75690.235202
2573.682012,-9326.594869,-592.164754,-71246.881314
2573.684550,-18505.148550,3552.988522,-70480.785816
2573.687088,-4885.359217,-2812.782580,-76149.892501
2573.689625,4145.153275,-3849.070898,-75077.358804
2573.692163,1184.329507,2516.700203,-71553.319513
2573.694700,-4145.153275,444.123565,-73851.606007
2573.697238,-7254.018232,-7994.224174,-75996.673402
2573.699775,-11843.295072,-5477.523971,-70940.443115
2573.702313,-7846.182985,-3849.070898,-71400.100414
2573.704851,-2072.576638,-9770.718434,-77222.426198
2573.707388,3849.070898,-4441.235652,-75843.454302
2573.709926,1184.329507,-444.123565,-72319.415011
2573.712463,-11695.253884,-3552.988522,-73085.510509
2573.715001,-10214.842000,444.123565,-72166.195912
2573.717538,4293.194464,9474.636058,-73085.510509
2573.720082,9918.759623,3701.029710,-77528.864398
2573.722625,13915.871710,7698.141797,-75077.358804
2573.725169,9622.677246,9178.553681,-72012.976812
2573.727712,2960.823768,6217.729913,-71553.319513
2573.730256,-5329.482782,888.247130,-74924.139704
2573.732800,-2516.700203,3552.988522,-72625.853210
2573.735343,2960.823768,7994.224174,-73698.386908
2573.737887,9622.677246,3552.988522,-74004.825107
2573.740430,6069.688724,4589.276840,-74924.139704
2573.742974,-592.164754,3108.864956,-71246.881314
2573.745517,-2516.700203,7105.977043,-72472.634111
2573.748061,2664.741391,0.000000,-74464.482406
2573.750604,5921.647536,1332.370696,-74158.044206
2573.753148,12435.459826,10955.047942,-72779.072310
2573.755691,8290.306550,6069.688724,-77528.864398
2573.758235,2960.823768,9770.718434,-74617.701505
2573.760778,-148.041188,2220.617826,-69408.252119
2573.763322,0.000000,3108.864956,-73085.510509
2573.765866,9918.759623,5921.647536,-76303.111601
2573.768409,7550.100608,3997.112087,-77375.645298
2573.770953,1036.288319,-1332.370696,-72932.291410
2573.773496,-5773.606348,-3552.988522,-70940.443115
2573.776040,-13323.706956,-8882.471304,-73085.510509
2573.778583,-11991.336260,-10807.006753,-74158.044206
2573.781127,148.041188,-2664.741391,-73238.729609
2573.783670,5033.400406,-2664.741391,-76762.768900
2573.786214,5033.400406,-148.041188,-75230.577904
2573.788757,-3108.864956,-592.164754,-71093.662214
2573.791301,-11695.253884,3849.070898,-70021.128517
2573.793845,-6957.935855,-5033.400406,-75077.358804
2573.796388,2960.823768,-3997.112087,-75383.797003
2573.798932,2812.782580,1036.288319,-72932.291410
2573.801475,1332.370696,740.205942,-74770.920605
2573.804019,-7105.977043,-4145.153275,-75077.358804
2573.806562,-11399.171507,-4441.235652,-70480.785816
2573.809106,-6513.812290,-6365.771101,-70787.224015
2573.811649,740.205942,-8586.388927,-76303.111601
2573.814193,2368.659014,-3552.988522,-76456.330700
2573.816736,2368.659014,-2516.700203,-74464.482406
2573.819280,-10362.883188,-5033.400406,-73698.386908
2573.821828,-14063.912898,-4589.276840,-72319.415011
2573.824376,-2072.576638,7994.224174,-70174.347617
2573.826924,10362.883188,7994.224174,-75230.577904
2573.829473,14063.912898,5921.647536,-77222.426198
2573.832021,11843.295072,11103.089130,-71400.100414
2573.834569,1184.329507,4441.235652,-72625.853210
2573.837117,-7698.141797,1628.453072,-74617.701505
2573.839665,-5477.523971,1036.288319,-72932.291410
2573.842213,2516.700203,6661.853478,-71093.662214
2573.844762,12583.501014,148.041188,-76609.549800
2573.847310,16580.613101,-444.123565,-76762.768900
2573.849858,1480.411884,7698.141797,-70787.224015
2573.852406,-148.041188,2664.741391,-73391.948708
2573.854954,-2368.659014,0.000000,-76303.111601
2573.857502,6661.853478,5625.565159,-71859.757712
2573.860051,12583.501014,9918.759623,-73545.167808
2573.862599,15248.242405,9474.636058,-77222.426198
2573.865147,4441.235652,5625.565159,-75383.797003
2573.867695,-2664.741391,4737.318029,-69561.471218
2573.870243,-1924.535449,2368.659014,-70480.785816
2573.872791,6809.894666,8586.388927,-76149.892501
2573.875340,9326.594869,3108.864956,-77222.426198
2573.877888,3108.864956,1480.411884,-74311.263306
2573.880436,-5181.441594,-2368.659014,-72166.195912
2573.882984,-12435.459826,-9178.553681,-73238.729609
2573.885532,-13915.871710,-9326.594869,-73851.606007
2573.888080,-5181.441594,-5329.482782,-73391.948708
2573.890628,4145.153275,1036.288319,-74464.482406
2573.893177,4293.194464,-2960.823768,-77222.426198
2573.895725,592.164754,-592.164754,-72625.853210
2573.898273,-5477.523971,2516.700203,-69867.909418
2573.900821,-10807.006753,1036.288319,-73238.729609
2573.903369,-1776.494261,-1776.494261,-75996.673402
2573.905917,2812.782580,-5181.441594,-73391.948708
2573.908466,-4737.318029,2072.576638,-73085.510509
2573.911014,-6513.812290,-3108.864956,-74004.825107
2573.913562,-8882.471304,-4885.359217,-72779.072310
2573.916110,-9178.553681,-4589.276840,-70480.785816
2573.918658,-2812.782580,-8734.430116,-73545.167808
2573.921206,5033.400406,-4885.359217,-76303.111601
2573.923759,3997.112087,-3849.070898,-76915.987999
2573.926311,-10066.800811,-3404.947333,-72166.195912
2573.928863,-11547.212695,-5181.441594,-71859.757712
2573.931415,-444.123565,8142.265362,-70327.566716
2573.933967,10066.800811,6365.771101,-76149.892501
2573.936519,14804.118840,7254.018232,-76303.111601
2573.939072,12879.583391,12287.418637,-72472.634111
2573.941624,4885.359217,7994.224174,-72012.976812
2573.944176,-5625.565159,1332.370696,-74311.263306
2573.946728,-8290.306550,888.247130,-73085.510509
2573.949280,2072.576638,4589.276840,-72166.195912
2573.951832,12139.377449,-444.123565,-76456.330700
2573.954385,12731.542202,1628.453072,-76762.768900
2573.956937,-296.082377,8734.430116,-72319.415011
2573.959489,148.041188,1480.411884,-73238.729609
2573.962041,-5921.647536,-296.082377,-74158.044206
2573.964593,4145.153275,4293.194464,-72472.634111
2573.967145,12287.418637,10362.883188,-73545.167808
2573.969698,13619.789333,9918.759623,-76149.892501
2573.972250,6365.771101,5181.441594,-75077.358804
2573.974802,-4293.194464,5625.565159,-69101.813920
2573.977354,-1776.494261,2220.617826,-71400.100414
2573.979906,7846.182985,8734.430116,-74311.263306
2573.982458,6809.894666,4589.276840,-77988.521696
2573.985011,3849.070898,-1480.411884,-74311.263306
2573.987563,-5033.400406,-3108.864956,-71400.100414
2573.990115,-10955.047942,-9178.553681,-72166.195912
2573.992667,-15100.201217,-11399.171507,-74158.044206
2573.995219,-5033.400406,-6513.812290,-74004.825107
2573.997772,6365.771101,444.123565,-75230.577904
2574.000324,5329.482782,-1332.370696,-76149.892501
2574.002876,-1480.411884,-148.041188,-71093.662214
2574.005428,-8142.265362,2368.659014,-69714.690318
2574.007980,-6661.853478,-2812.782580,-74311.263306
2574.010532,1036.288319,-7402.059420,-76149.892501
2574.013085,1628.453072,296.082377,-72625.853210
2574.015637,-2220.617826,3552.988522,-73698.386908
2574.018189,-8734.430116,-8142.265362,-75230.577904
2574.020741,-11547.212695,-4145.153275,-70787.224015
2574.023293,-6957.935855,-9178.553681,-72472.634111
2574.025848,592.164754,-1924.535449,-74924.139704
2574.028403,5033.400406,-4293.194464,-76915.987999
2574.030958,-1480.411884,-2960.823768,-75537.016103
2574.033513,-12435.459826,-7254.018232,-72319.415011
2574.036067,-10214.842000,1332.370696,-71093.662214
2574.038622,3404.947333,5033.400406,-72012.976812
2574.041177,11547.212695,7846.182985,-75996.673402
2574.043732,15248.242405,8586.388927,-75230.577904
2574.046287,8586.388927,10362.883188,-72472.634111
2574.048842,740.205942,6513.812290,-72625.853210
2574.051396,-8586.388927,-2664.741391,-75383.797003
2574.053951,-2812.782580,2516.700203,-71400.100414
2574.056506,5773.606348,3701.029710,-72779.072310
2574.059061,16580.613101,1480.411884,-75843.454302
2574.061616,7994.224174,-1036.288319,-75230.577904
2574.064171,3108.864956,10066.800811,-71553.319513
2574.066725,-1480.411884,0.000000,-75230.577904
2574.069280,444.123565,2220.617826,-73698.386908
2574.071835,9030.512492,5181.441594,-73698.386908
2574.074390,14508.036463,14952.160028,-72166.195912
2574.076945,9326.594869,4441.235652,-78448.178995
2574.079500,444.123565,6809.894666,-71706.538613
2574.082055,-3552.988522,3256.906145,-68642.156621
2574.084609,4441.235652,7254.018232,-72779.072310
2574.087164,8438.347739,4441.235652,-77682.083497
2574.089719,1924.535449,740.205942,-74617.701505
2574.092274,-296.082377,2368.659014,-70940.443115
2574.094829,-11103.089130,-10510.924376,-73238.729609
2574.097384,-14804.118840,-11695.253884,-75077.358804
2574.099938,-8290.306550,-9918.759623,-73085.510509
2574.102493,3108.864956,3849.070898,-72166.195912
2574.105048,4293.194464,-3701.029710,-78294.959896
2574.107603,1480.411884,1924.535449,-74464.482406
2574.110158,-4145.153275,-296.082377,-69408.252119
2574.112713,-8734.430116,2368.659014,-70480.785816
2574.115267,296.082377,-5921.647536,-77222.426198
2574.117822,0.000000,740.205942,-72779.072310
2574.120377,1480.411884,1332.370696,-73391.948708
2574.122932,-5329.482782,-5329.482782,-75537.016103
2574.125487,-12139.377449,-6661.853478,-71859.757712
2574.128044,-7994.224174,-7550.100608,-70174.347617
2574.130602,-1480.411884,-3849.070898,-72779.072310
2574.133159,5773.606348,-6365.771101,-78294.959896
2574.135716,2664.741391,0.000000,-75843.454302
2574.138274,-11399.171507,-6809.894666,-71859.757712
2574.140831,-7846.182985,-1628.453072,-70787.224015
2574.143388,888.247130,5625.565159,-72166.195912
2574.145946,11695.253884,6513.812290,-75996.673402
2574.148503,14952.160028,11103.089130,-74924.139704
2574.151061,14211.954086,11991.336260,-72932.291410
2574.153618,2664.741391,6661.853478,-73545.167808
2574.156175,-6069.688724,-1776.494261,-73698.386908
2574.158733,-5329.482782,2516.700203,-71246.881314
2574.161290,444.123565,888.247130,-74311.263306
2574.163848,8438.347739,3552.988522,-75843.454302
2574.166405,8586.388927,4145.153275,-74311.263306
2574.168962,-1480.411884,4293.194464,-72932.291410
2574.171520,-592.164754,3552.988522,-72472.634111
2574.174077,2368.659014,1480.411884,-73238.729609
2574.176634,3404.947333,8882.471304,-73545.167808
2574.179192,12879.583391,7846.182985,-78754.617194
2574.181749,6957.935855,6365.771101,-75383.797003
2574.184307,740.205942,9178.553681,-70634.004916
2574.186864,-3256.906145,1924.535449,-70634.004916
2574.189421,9030.512492,9030.512492,-73391.948708
2574.191979,8142.265362,4441.235652,-78448.178995
2574.194536,2960.823768,2220.617826,-75077.358804
2574.197094,-4441.235652,-4737.318029,-72319.415011
2574.199651,-11547.212695,-10955.047942,-72012.976812
2574.202208,-15248.242405,-12879.583391,-73391.948708
2574.204766,-6069.688724,-3849.070898,-72932.291410
2574.207323,3108.864956,-592.164754,-74617.701505
2574.209880,8586.388927,2220.617826,-75996.673402
2574.212438,-296.082377,296.082377,-72625.853210
2574.214995,-12879.583391,-148.041188,-70634.004916
2574.217553,-7105.977043,-740.205942,-73085.510509
2574.220110,-1332.370696,-6365.771101,-76915.987999
2574.222667,-148.041188,-740.205942,-74311.263306
2574.225225,-2072.576638,740.205942,-72625.853210
2574.227782,-5033.400406,-3108.864956,-73698.386908
2574.230342,-11695.253884,-12139.377449,-72932.291410
2574.232902,-9918.759623,-6957.935855,-70327.566716
2574.235462,1184.329507,-2368.659014,-75690.235202
2574.238022,2220.617826,-3404.947333,-78754.617194
2574.240582,-6217.729913,-2812.782580,-75077.358804
2574.243142,-9030.512492,-4737.318029,-68795.375720
2574.245702,-888.247130,3701.029710,-70174.347617
2574.248261,6365.771101,2664.741391,-77528.864398
2574.250821,11399.171507,8438.347739,-75383.797003
2574.253381,15840.407159,17320.819043,-73391.948708
2574.255941,8438.347739,8438.347739,-74311.263306
2574.258501,-3108.864956,592.164754,-73391.948708
2574.261061,-4145.153275,1776.494261,-68948.594820
2574.263621,1480.411884,3997.112087,-72932.291410
2574.266181,6809.894666,-1480.411884,-78754.617194
2574.268741,13471.748144,4737.318029,-75230.577904
2574.271301,7105.977043,-1480.411884,-71706.538613
2574.273861,-4441.235652,9622.677246,-72166.195912
2574.276421,2516.700203,296.082377,-75383.797003
2574.278980,3108.864956,4441.235652,-72012.976812
2574.281540,13471.748144,17320.819043,-74464.482406
2574.284100,10658.965565,1036.288319,-83044.751983
2574.286660,1924.535449,6957.935855,-71706.538613
2574.289220,-2960.823768,4441.235652,-67416.403824
2574.291780,1628.453072,8586.388927,-70327.566716
2574.294340,6069.688724,-444.123565,-80133.589091
2574.296900,3108.864956,7254.018232,-75843.454302
2574.299460,1184.329507,2220.617826,-70940.443115
2574.302020,-5329.482782,-6661.853478,-73085.510509
2574.304580,-13175.665768,-18357.107362,-73391.948708
2574.307140,-9770.718434,-9326.594869,-69714.690318
2574.309699,1332.370696,4145.153275,-74311.263306
2574.312259,2220.617826,-5181.441594,-80899.684589
2574.314819,4737.318029,4737.318029,-73238.729609
2574.317379,-3701.029710,1480.411884,-68795.375720
2574.319939,-6365.771101,888.247130,-71400.100414
2574.322499,-2072.576638,-11843.295072,-77835.302597
2574.325059,-444.123565,4441.235652,-72779.072310
2574.327619,2368.659014,1480.411884,-74924.139704
2574.330179,-6957.935855,-9326.594869,-76149.892501
2574.332740,-9326.594869,-2812.782580,-70327.566716
2574.335302,-6661.853478,-12583.501014,-68642.156621
2574.337863,1036.288319,1184.329507,-72625.853210
2574.340425,4293.194464,-8586.388927,-79827.150892
2574.342986,-1628.453072,1924.535449,-75230.577904
2574.345548,-10807.006753,-8586.388927,-72625.853210
2574.348109,-7698.141797,1480.411884,-69714.690318
2574.350671,3108.864956,1184.329507,-73085.510509
2574.353232,12435.459826,8290.306550,-76915.987999
2574.355793,15100.201217,15100.201217,-75383.797003
2574.358355,9030.512492,10066.800811,-74770.920605
2574.360916,740.205942,6809.894666,-72012.976812
2574.363478,-7994.224174,-4145.153275,-72012.976812
2574.366039,-1924.535449,2072.576638,-71859.757712
2574.368601,2516.700203,-1036.288319,-75537.016103
2574.371162,13767.830521,6365.771101,-75690.235202
2574.373724,7402.059420,5477.523971,-73085.510509
2574.376285,-740.205942,3256.906145,-71553.319513
2574.378847,-2812.782580,-1776.494261,-72472.634111
2574.381408,4293.194464,5773.606348,-72166.195912
2574.383970,9918.759623,11251.130318,-75383.797003
2574.386531,10955.047942,10214.842000,-78294.959896
2574.389093,5921.647536,6069.688724,-74770.920605
2574.391654,296.082377,3404.947333,-68795.375720
2574.394215,4441.235652,6661.853478,-69101.813920
2574.396777,6809.894666,2368.659014,-76149.892501
2574.399338,1480.411884,6957.935855,-77988.521696
2574.401900,-2516.700203,-296.082377,-73698.386908
2574.404461,-5329.482782,-6809.894666,-71093.662214
2574.407023,-9622.677246,-16728.654289,-73391.948708
2574.409584,-7698.141797,-9770.718434,-71400.100414
2574.412146,1332.370696,-3256.906145,-73085.510509
2574.414707,3701.029710,2960.823768,-77988.521696
2574.417269,444.123565,740.205942,-77835.302597
2574.419830,-7698.141797,3701.029710,-69714.690318
2574.422392,-9178.553681,-2664.741391,-68335.718422
2574.424953,-2664.741391,-4737.318029,-75690.235202
2574.427514,4293.194464,-888.247130,-75843.454302
2574.430076,-2368.659014,1036.288319,-74158.044206
2574.432637,-5921.647536,-2516.700203,-75690.235202
2574.435171,-13915.871710,-15544.324782,-73851.606007
2574.437705,-11399.171507,-5477.523971,-67109.965625
2574.440239,-592.164754,-6217.729913,-70940.443115
2574.442772,4589.276840,-888.247130,-79520.712692
2574.445306,-296.082377,-2960.823768,-79367.493593
2574.447840,-7254.018232,-1480.411884,-68795.375720
2574.450373,-2812.782580,1036.288319,-68795.375720
2574.452907,2812.782580,-1628.453072,-76915.987999
2574.455441,7105.977043,12287.418637,-75230.577904
2574.457975,14508.036463,18505.148550,-73085.510509
2574.460508,11103.089130,12879.583391,-75996.673402
2574.463042,1480.411884,0.000000,-74924.139704
2574.465576,-1776.494261,148.041188,-68488.937521
2574.468109,-2664.741391,888.247130,-69255.033019
2574.470643,4885.359217,-1480.411884,-78754.617194
2574.473177,10510.924376,6809.894666,-76303.111601
2574.475710,3849.070898,5921.647536,-72012.976812
2574.478244,740.205942,3997.112087,-71246.881314
2574.480778,1628.453072,-5477.523971,-72779.072310
2574.483312,6809.894666,9474.636058,-71093.662214
2574.485845,9918.759623,10658.965565,-77222.426198
2574.488379,6957.935855,12435.459826,-79520.712692
2574.490913,1480.411884,2960.823768,-74770.920605
2574.493446,740.205942,6661.853478,-66037.431928
2574.495980,6809.894666,4145.153275,-72166.195912
2574.498514,6957.935855,4293.194464,-78754.617194
2574.501048,-296.082377,1332.370696,-76762.768900
2574.503581,-5181.441594,4441.235652,-71859.757712
2574.506115,-11547.212695,-15396.283594,-74004.825107
2574.508649,-15100.201217,-16876.695478,-72932.291410
2574.511182,-5033.400406,-8438.347739,-68948.594820
2574.513716,4145.153275,4589.276840,-73698.386908
2574.516250,7105.977043,-888.247130,-81052.903688
2574.518784,-3256.906145,3552.988522,-72779.072310
2574.521317,-8882.471304,148.041188,-67722.842023
2574.523851,-7550.100608,-6217.729913,-73545.167808
2574.526385,-1332.370696,-1924.535449,-75077.358804
2574.528918,4885.359217,1628.453072,-75230.577904
2574.531452,-1480.411884,2664.741391,-74004.825107
2574.533986,-4885.359217,-9622.677246,-76762.768900
2574.536528,-11103.089130,-11695.253884,-67876.061123
2574.539069,-6957.935855,-6809.894666,-68488.937521
2574.541609,592.164754,-6809.894666,-79980.369991
2574.544149,-1480.411884,888.247130,-80286.808190
2574.546690,-5921.647536,-4737.318029,-72779.072310
2574.549230,-2812.782580,4441.235652,-68335.718422
2574.551770,5181.441594,-5329.482782,-72625.853210
2574.554311,5921.647536,4589.276840,-75690.235202
2574.556851,11251.130318,15396.283594,-73698.386908
2574.559392,7994.224174,19541.436869,-75537.016103
2574.561932,2960.823768,3256.906145,-77988.521696
2574.564472,-1480.411884,444.123565,-70327.566716
2574.567013,444.123565,3552.988522,-66497.089226
2574.569553,1332.370696,-4737.318029,-77069.207099
2574.572094,8882.471304,4885.359217,-77682.083497
2574.574634,3849.070898,7698.141797,-74464.482406
2574.577174,-148.041188,7402.059420,-71706.538613
2574.579715,-1036.288319,-6217.729913,-73238.729609
2574.582255,6957.935855,3701.029710,-69561.471218
2574.584795,12879.583391,14211.954086,-70174.347617
2574.587336,11695.253884,10955.047942,-82738.313784
2574.589876,1332.370696,7105.977043,-77528.864398
2574.592417,0.000000,5033.400406,-65884.212828
2574.594957,7846.182985,2368.659014,-71400.100414
2574.597497,6217.729913,-2072.576638,-77222.426198
2574.600038,0.000000,3552.988522,-76149.892501
2574.602578,-3552.988522,8438.347739,-71859.757712
2574.605118,-12139.377449,-14508.036463,-78754.617194
2574.607659,-12731.542202,-19689.478057,-72012.976812
2574.610199,-6513.812290,-7550.100608,-66497.089226
2574.612740,1332.370696,740.205942,-72779.072310
2574.615280,4589.276840,-444.123565,-82738.313784
2574.617820,148.041188,7105.977043,-72472.634111
2574.620361,-9178.553681,1480.411884,-69867.909418
2574.622901,-6069.688724,-3997.112087,-71093.662214
2574.625442,0.000000,-13027.624579,-75843.454302
2574.627982,-1036.288319,9178.553681,-70940.443115
2574.630522,-2368.659014,1776.494261,-77528.864398
2574.633063,-9030.512492,-7994.224174,-78754.617194
2574.635603,-9918.759623,-15692.365970,-69101.813920
2574.638149,-4293.194464,-10807.006753,-66956.746525
2574.640696,2220.617826,-444.123565,-77682.083497
2574.643242,-3552.988522,-4885.359217,-80593.246390
2574.645788,-5477.523971,3404.947333,-72779.072310
2574.648335,-1480.411884,1036.288319,-70174.347617
2574.650881,5329.482782,-1332.370696,-73085.510509
2574.653428,7846.182985,1036.288319,-73238.729609
2574.655974,12435.459826,21614.013506,-70327.566716
2574.658520,7550.100608,13323.706956,-79061.055394
2574.661067,3108.864956,7105.977043,-77682.083497
2574.663613,-592.164754,296.082377,-68182.499322
2574.666159,296.082377,-1480.411884,-67722.842023
2574.668706,3256.906145,-7254.018232,-77375.645298
2574.671252,10955.047942,6069.688724,-77375.645298
2574.673798,1480.411884,10955.047942,-74924.139704
2574.676345,-2220.617826,5033.400406,-73698.386908
2574.678891,148.041188,-6069.688724,-72319.415011
2574.681438,6809.894666,7402.059420,-67876.061123
2574.683984,14211.954086,9918.759623,-78141.740796
2574.686530,8882.471304,10510.924376,-79980.369991
2574.689077,0.000000,9030.512492,-75383.797003
2574.691623,740.205942,9918.759623,-67876.061123
2574.694169,4441.235652,-2960.823768,-72625.853210
2574.696716,3849.070898,2072.576638,-74158.044206
2574.699262,-888.247130,740.205942,-74158.044206
2574.701808,-1776.494261,4885.359217,-74617.701505
2574.704355,-9918.759623,-14063.912898,-77682.083497
2574.706901,-10510.924376,-15692.365970,-72625.853210
2574.709448,-3997.112087,-7105.977043,-68182.499322
2574.711994,1184.329507,-444.123565,-75690.235202
2574.714540,4441.235652,1924.535449,-79980.369991
2574.717087,1776.494261,9770.718434,-73085.510509
2574.719637,-5921.647536,1924.535449,-71246.881314
2574.722188,-5625.565159,-11251.130318,-72625.853210
2574.724738,592.164754,-5329.482782,-72472.634111
2574.727289,-2072.576638,4441.235652,-73085.510509
2574.729840,-6957.935855,0.000000,-78601.398095
2574.732390,-10510.924376,-7698.141797,-75077.358804
2574.734941,-5329.482782,-9326.594869,-67109.965625
2574.737492,-148.041188,-5329.482782,-68488.937521
2574.740042,2664.741391,-7402.059420,-77988.521696
2574.742593,-6217.729913,-3849.070898,-78601.398095
2574.745143,-7698.141797,3256.906145,-72932.291410
2574.747694,-1628.453072,2220.617826,-72472.634111
2574.750245,5033.400406,888.247130,-72625.853210
2574.752795,8290.306550,6069.688724,-71093.662214
2574.755346,13471.748144,20873.807564,-72779.072310
2574.757897,5773.606348,5477.523971,-80286.808190
2574.760447,-1480.411884,7846.182985,-74617.701505
2574.762998,-4589.276840,-1480.411884,-68795.375720
2574.765548,740.205942,-1628.453072,-70174.347617
2574.768099,4145.153275,-7105.977043,-77528.864398
2574.770650,11843.295072,7698.141797,-74924.139704
2574.773200,3849.070898,11399.171507,-74311.263306
2574.775751,2664.741391,592.164754,-75996.673402
2574.778302,3997.112087,-2368.659014,-71093.662214
2574.780852,6365.771101,9918.759623,-68642.156621
2574.783403,8734.430116,9622.677246,-79214.274493
2574.785953,6217.729913,8734.430116,-79214.274493
2574.788504,2812.782580,9918.759623,-71553.319513
2574.791055,6217.729913,9178.553681,-67722.842023
2574.793605,6217.729913,-3108.864956,-74770.920605
2574.796156,-1184.329507,-1924.535449,-75537.016103
2574.798706,-4145.153275,3997.112087,-72472.634111
2574.801257,-8734.430116,-7846.182985,-76915.987999
2574.803808,-10807.006753,-17468.860231,-76456.330700
2574.806358,-4441.235652,-9030.512492,-66956.746525
2574.808909,3404.947333,-2220.617826,-68795.375720
2574.811460,2516.700203,-2960.823768,-79367.493593
2574.814010,740.205942,5033.400406,-78448.178995
2574.816561,-9030.512492,9918.759623,-71859.757712
2574.819111,-8438.347739,-592.164754,-70787.224015
2574.821666,-1776.494261,-16580.613101,-75077.358804
2574.824221,592.164754,4885.359217,-68948.594820
2574.826776,-1332.370696,3701.029710,-74617.701505
2574.829331,-10658.965565,-10214.842000,-80286.808190
2574.831885,-11695.253884,-10214.842000,-73545.167808
2574.834440,-6957.935855,-6365.771101,-65884.212828
2574.836995,0.000000,-5181.441594,-73085.510509
2574.839550,-1184.329507,-9622.677246,-80286.808190
2574.842104,-5181.441594,4145.153275,-73391.948708
2574.844659,-740.205942,2664.741391,-72319.415011
2574.847214,6957.935855,4441.235652,-75383.797003
2574.849769,6069.688724,5181.441594,-71553.319513
2574.852323,10955.047942,20429.683999,-68948.594820
2574.854878,6661.853478,8142.265362,-77988.521696
2574.857433,4145.153275,6513.812290,-78141.740796
2574.859988,148.041188,3256.906145,-70174.347617
2574.862542,888.247130,888.247130,-67263.184724
2574.865097,5033.400406,-9326.594869,-77222.426198
2574.867652,8882.471304,3701.029710,-75843.454302
2574.870207,1480.411884,9326.594869,-73698.386908
2574.872762,-296.082377,2516.700203,-74924.139704
2574.875316,7698.141797,-1036.288319,-73238.729609
2574.877871,10510.924376,10362.883188,-68182.499322
2574.880426,13027.624579,9918.759623,-75690.235202
2574.882981,7254.018232,6365.771101,-79367.493593
2574.885535,444.123565,10658.965565,-74617.701505
2574.888090,2664.741391,12139.377449,-67722.842023
2574.890645,4293.194464,1480.411884,-74464.482406
2574.893200,-1332.370696,-5181.441594,-75230.577904
2574.895754,888.247130,3404.947333,-71553.319513
2574.898309,-7550.100608,-6957.935855,-75843.454302
2574.900864,-11547.212695,-16580.613101,-79214.274493
2574.903419,-10066.800811,-14804.118840,-70327.566716
2574.905973,-740.205942,2960.823768,-67416.403824
2574.908528,148.041188,-6217.729913,-78141.740796
2574.911083,3256.906145,4885.359217,-78141.740796
2574.913638,888.247130,6217.729913,-70327.566716
2574.916193,-8438.347739,4589.276840,-70787.224015
2574.918747,-1036.288319,-10510.924376,-75537.016103
2574.921302,-740.205942,-2516.700203,-71246.881314
2574.923860,-6661.853478,3108.864956,-74004.825107
2574.926417,-8586.388927,-9918.759623,-79367.493593
2574.928974,-9326.594869,-9030.512492,-71093.662214
2574.931532,-2220.617826,-2368.659014,-66803.527426
2574.934089,2072.576638,-9030.512492,-75077.358804
2574.936647,-3552.988522,-8586.388927,-80440.027290
2574.939204,-6217.729913,-1036.288319,-73391.948708
2574.941762,-1332.370696,11399.171507,-69255.033019
2574.944319,5773.606348,-2220.617826,-77222.426198
2574.946877,7254.018232,5773.606348,-73545.167808
2574.949434,14359.995275,22058.137072,-68029.280222
2574.951991,8586.388927,11251.130318,-76456.330700
2574.954549,1776.494261,2664.741391,-79980.369991
2574.957106,-2368.659014,740.205942,-70634.004916
2574.959664,-1332.370696,3404.947333,-68029.280222
2574.962221,-148.041188,-6513.812290,-77528.864398
2574.964779,9474.636058,-1924.535449,-76762.768900
2574.967336,2812.782580,12879.583391,-72012.976812
2574.969894,-444.123565,740.205942,-75230.577904
2574.972451,5921.647536,-1924.535449,-75383.797003
2574.975008,9622.677246,10807.006753,-66497.089226
2574.977566,6513.812290,12583.501014,-75843.454302
2574.980123,6217.729913,4145.153275,-80746.465489
2574.982681,3701.029710,8438.347739,-73391.948708
2574.985238,5921.647536,15544.324782,-65271.336430
2574.987796,5625.565159,-148.041188,-74464.482406
2574.990353,-1924.535449,-7105.977043,-75537.016103
2574.992911,-5181.441594,4589.276840,-70327.566716
2574.995468,-9770.718434,-5329.482782,-74311.263306
2574.998025,-11695.253884,-19689.478057,-79214.274493
2575.000583,-5033.400406,-10658.965565,-68948.594820
2575.003140,3256.906145,1776.494261,-68335.718422
2575.005698,2516.700203,-888.247130,-78294.959896
2575.008255,-2072.576638,1924.535449,-79980.369991
2575.010813,-6513.812290,5773.606348,-69255.033019
2575.013370,-7994.224174,1036.288319,-72932.291410
2575.015928,888.247130,-13915.871710,-77528.864398
2575.018485,296.082377,2812.782580,-71400.100414
2575.021042,-8438.347739,1924.535449,-74617.701505
2575.023600,-9918.759623,-18949.272115,-79673.931792
2575.026160,-8586.388927,-3701.029710,-67569.622924
2575.028720,-1924.535449,-3552.988522,-67109.965625
2575.031280,-2220.617826,-7994.224174,-78294.959896
2575.033840,-5625.565159,-9622.677246,-79827.150892
2575.036400,-1184.329507,9770.718434,-68488.937521
2575.038960,6217.729913,8882.471304,-70940.443115
2575.041520,5625.565159,-4145.153275,-78294.959896
2575.044080,10807.006753,17024.736666,-68642.156621
2575.046640,8734.430116,17468.860231,-70174.347617
2575.049200,6217.729913,9030.512492,-79214.274493
2575.051760,-1036.288319,-6069.688724,-78294.959896
2575.054320,1480.411884,6809.894666,-65884.212828
2575.056880,3256.906145,-2812.782580,-71400.100414
2575.059440,7402.059420,-1036.288319,-78601.398095
2575.062000,1924.535449,-444.123565,-76609.549800
2575.064560,-2220.617826,12731.542202,-70787.224015
2575.067119,5625.565159,-6661.853478,-77222.426198
2575.069679,10214.842000,4145.153275,-71859.757712
2575.072239,10955.047942,14211.954086,-69561.471218
2575.074799,9918.759623,10066.800811,-77835.302597
2575.077359,1776.494261,4145.153275,-79367.493593
2575.079919,3108.864956,14656.077652,-68182.499322
2575.082479,3108.864956,6809.894666,-68948.594820
2575.085039,-3997.112087,-5625.565159,-76915.987999
2575.087599,-1184.329507,-1184.329507,-73085.510509
2575.090159,-8438.347739,-3849.070898,-71706.538613
2575.092719,-11103.089130,-14952.160028,-77682.083497
2575.095279,-9030.512492,-15988.448347,-74770.920605
2575.097839,0.000000,-1036.288319,-68948.594820
2575.100399,592.164754,3256.906145,-72625.853210
2575.102959,2072.576638,2220.617826,-79367.493593
2575.105519,-4589.276840,4293.194464,-73085.510509
2575.108079,-4589.276840,3256.906145,-68948.594820
2575.110639,-2072.576638,-9030.512492,-75690.235202
2575.113199,1628.453072,-3256.906145,-74617.701505
2575.115759,-6217.729913,3404.947333,-71553.319513
2575.118319,-9178.553681,-7698.141797,-76762.768900
2575.120879,-8142.265362,-12435.459826,-73698.386908
2575.123439,-1924.535449,-2812.782580,-68182.499322
2575.125999,-1480.411884,-6809.894666,-73391.948708
2575.128561,-3552.988522,-7994.224174,-78601.398095
2575.131122,-4589.276840,-148.041188,-75383.797003
2575.133684,5625.565159,7105.977043,-72166.195912
2575.136246,8142.265362,2960.823768,-73545.167808
2575.138807,10807.006753,12583.501014,-73085.510509
2575.141369,10510.924376,15396.283594,-70021.128517
2575.143931,6513.812290,12139.377449,-75077.358804
2575.146493,-740.205942,-1184.329507,-77988.521696
2575.149054,-740.205942,148.041188,-70327.566716
2575.151616,4145.153275,-592.164754,-70327.566716
2575.154178,5181.441594,-3997.112087,-75077.358804
2575.156740,2516.700203,3404.947333,-76303.111601
2575.159301,-148.041188,13323.706956,-71400.100414
2575.161863,888.247130,-1480.411884,-74311.263306
2575.164425,7105.977043,3552.988522,-73698.386908
2575.166986,9474.636058,10807.006753,-71400.100414
2575.169548,8142.265362,11547.212695,-75843.454302
2575.172110,3997.112087,5921.647536,-77222.426198
2575.174672,4737.318029,10066.800811,-72012.976812
2575.177233,3849.070898,9326.594869,-69255.033019
2575.179795,-444.123565,-6809.894666,-74770.920605
2575.182357,-5477.523971,296.082377,-73085.510509
2575.184918,-8734.430116,-5033.400406,-74311.263306
2575.187480,-9918.759623,-16432.571912,-75996.673402
2575.190042,-5033.400406,-12287.418637,-72472.634111
2575.192604,-592.164754,-3404.947333,-70021.128517
2575.195165,2812.782580,592.164754,-73851.606007
2575.197727,-296.082377,2664.741391,-77988.521696
2575.200289,-3849.070898,4737.318029,-72472.634111
2575.202851,-5773.606348,6809.894666,-70480.785816
2575.205412,-1924.535449,-11843.295072,-75230.577904
2575.207974,-2960.823768,-3701.029710,-72625.853210
2575.210536,-2812.782580,3256.906145,-73238.729609
2575.213097,-8882.471304,-11547.212695,-76456.330700
2575.215659,-8882.471304,-7402.059420,-71553.319513
2575.218221,-3404.947333,-7402.059420,-70174.347617
2575.220783,-3108.864956,-3997.112087,-73851.606007
2575.223344,-5773.606348,-11843.295072,-78907.836294
2575.225906,-2664.741391,6365.771101,-71246.881314
2575.228468,5625.565159,6217.729913,-72166.195912
2575.231031,7254.018232,-1036.288319,-76762.768900
2575.233595,8438.347739,15100.201217,-70634.004916
2575.236158,6957.935855,18209.066173,-70480.785816
2575.238722,3849.070898,9178.553681,-78141.740796
2575.241285,-1036.288319,-3552.988522,-76915.987999
2575.243849,1628.453072,4737.318029,-68642.156621
2575.246412,5625.565159,-3552.988522,-71859.757712
2575.248975,6809.894666,-2812.782580,-76762.768900
2575.251539,4737.318029,6217.729913,-71553.319513
2575.254102,-2368.659014,7105.977043,-74464.482406
2575.256666,0.000000,-4589.276840,-75690.235202
2575.259229,9770.718434,6661.853478,-71246.881314
2575.261793,12879.583391,16728.654289,-68948.594820
2575.264356,7846.182985,9622.677246,-78907.836294
2575.266920,5181.441594,1924.535449,-79367.493593
2575.269483,6809.894666,14211.954086,-68029.280222
2575.272047,2960.823768,6661.853478,-70327.566716
2575.274610,-3404.947333,-7994.224174,-76915.987999
2575.277174,-3108.864956,-444.123565,-71400.100414
2575.279737,-8882.471304,-4441.235652,-73238.729609
2575.282300,-8734.430116,-17468.860231,-78601.398095
2575.284864,-3404.947333,-14359.995275,-72472.634111
2575.287427,740.205942,2368.659014,-69255.033019
2575.289991,1184.329507,1036.288319,-75383.797003
2575.292554,-1924.535449,592.164754,-79214.274493
2575.295118,-9918.759623,3997.112087,-71706.538613
2575.297681,-1036.288319,5773.606348,-68948.594820
2575.300245,1480.411884,-13175.665768,-77375.645298
2575.302808,-3256.906145,1628.453072,-72319.415011
2575.305372,-6957.935855,-740.205942,-73545.167808
2575.307935,-12139.377449,-8586.388927,-74770.920605
2575.310499,-9326.594869,-13915.871710,-73545.167808
2575.313062,-2960.823768,-3404.947333,-68335.718422
2575.315625,-3108.864956,-8290.306550,-74770.920605
2575.318189,-4293.194464,-6069.688724,-78448.178995
2575.320752,3849.070898,3256.906145,-73545.167808
2575.323316,7550.100608,9770.718434,-72932.291410
2575.325879,6957.935855,7105.977043,-75077.358804
2575.328443,7105.977043,17616.901420,-71400.100414
2575.331006,9474.636058,13915.871710,-72319.415011
2575.333571,2516.700203,5329.482782,-75996.673402
2575.336136,1628.453072,-4145.153275,-75077.358804
2575.338701,592.164754,3256.906145,-68948.594820
2575.341266,3404.947333,-3849.070898,-74004.825107
2575.343831,3849.070898,444.123565,-78141.740796
2575.346396,0.000000,7698.141797,-73238.729609
2575.348960,3552.988522,4441.235652,-72472.634111
2575.351525,7994.224174,1036.288319,-74004.825107
2575.354090,13619.789333,6069.688724,-73238.729609
2575.356655,10807.006753,15988.448347,-73085.510509
2575.359220,6513.812290,5625.565159,-78294.959896
2575.361785,3849.070898,9178.553681,-73698.386908
2575.364350,2072.576638,9918.759623,-70021.128517
2575.366915,-3256.906145,-888.247130,-71859.757712
2575.369480,-3256.906145,-2664.741391,-73851.606007
2575.372044,-5625.565159,-9178.553681,-74617.701505
2575.374609,-10066.800811,-12583.501014,-74770.920605
2575.377174,-6069.688724,-16580.613101,-73085.510509
2575.379739,-2960.823768,-3997.112087,-71553.319513
2575.382304,-888.247130,1776.494261,-74617.701505
2575.384869,1776.494261,2960.823768,-76456.330700
2575.387434,-4885.359217,4145.153275,-72166.195912
2575.389999,-3849.070898,2220.617826,-70480.785816
2575.392564,0.000000,-5921.647536,-74464.482406
2575.395128,-3256.906145,-2072.576638,-74004.825107
2575.397693,-8290.306550,1776.494261,-74464.482406
2575.400258,-11695.253884,-8882.471304,-75230.577904
2575.402823,-7550.100608,-9474.636058,-71706.538613
2575.405388,-740.205942,-6069.688724,-68948.594820
2575.407953,-1924.535449,-6957.935855,-75230.577904
2575.410518,-3701.029710,-11103.089130,-77988.521696
2575.413083,-296.082377,6069.688724,-72625.853210
2575.415648,6069.688724,7402.059420,-73545.167808
2575.418213,5477.523971,2368.659014,-76762.768900
2575.420777,11843.295072,17616.901420,-69408.252119
2575.423342,7994.224174,15544.324782,-72472.634111
2575.425907,6809.894666,9918.759623,-75996.673402
2575.428472,-296.082377,-4293.194464,-74004.825107
2575.431037,-2960.823768,4737.318029,-68182.499322
2575.433602,2812.782580,-5181.441594,-76149.892501
2575.436167,7994.224174,-1480.411884,-76762.768900
2575.438733,1480.411884,9622.677246,-71246.881314
2575.441298,5477.523971,10214.842000,-71706.538613
2575.443864,7994.224174,-1036.288319,-75690.235202
2575.446429,8142.265362,11251.130318,-71400.100414
2575.448995,9030.512492,12139.377449,-75230.577904
2575.451561,5329.482782,6809.894666,-76456.330700
2575.454126,5921.647536,11991.336260,-71859.757712
2575.456692,3552.988522,7402.059420,-68642.156621
2575.459257,-2516.700203,-1776.494261,-73238.729609
2575.461823,-4589.276840,-6069.688724,-76456.330700
2575.464388,-5921.647536,-3552.988522,-73391.948708
2575.466954,-9178.553681,-14656.077652,-74004.825107
2575.469519,-4737.318029,-12583.501014,-73851.606007
2575.472085,592.164754,-6661.853478,-71093.662214
2575.474650,1480.411884,4441.235652,-73238.729609
2575.477216,1480.411884,592.164754,-77988.521696
2575.479781,-5033.400406,2960.823768,-73085.510509
2575.482347,-5773.606348,5329.482782,-69408.252119
2575.484912,1332.370696,-6069.688724,-74311.263306
2575.487478,-2072.576638,-5329.482782,-75537.016103
2575.490043,-7550.100608,2516.700203,-71859.757712
2575.492609,-9474.636058,-8142.265362,-72625.853210
2575.495174,-6365.771101,-9326.594869,-71400.100414
2575.497740,-4885.359217,-6217.729913,-72166.195912
2575.500306,-6217.729913,-10807.006753,-76149.892501
2575.502871,-4589.276840,-2812.782580,-75230.577904
2575.505437,5181.441594,4293.194464,-73851.606007
2575.508002,6957.935855,6957.935855,-73085.510509
2575.510568,8142.265362,7402.059420,-73851.606007
2575.513133,10658.965565,20133.601622,-70787.224015
2575.515699,5181.441594,12435.459826,-75077.358804
2575.518264,1776.494261,888.247130,-76303.111601
2575.520830,1036.288319,-1628.453072,-71400.100414
2575.523395,-1332.370696,3256.906145,-68948.594820
2575.525961,8290.306550,-4145.153275,-76762.768900
2575.528526,4441.235652,-2516.700203,-76915.987999
