#time,accel_x,accel_y,accel_z
2260.061862,592.164754,444.123565,-73238.729609
2260.064329,0.000000,1184.329507,-72779.072310
2260.066797,592.164754,1184.329507,-73238.729609
2260.069264,1036.288319,1036.288319,-73545.167808
2260.071731,2072.576638,1776.494261,-72932.291410
2260.074198,1628.453072,1628.453072,-73391.948708
2260.076666,592.164754,592.164754,-75077.358804
2260.079133,296.082377,592.164754,-73545.167808
2260.081600,-148.041188,1036.288319,-73545.167808
2260.084068,148.041188,888.247130,-73545.167808
2260.086535,-888.247130,444.123565,-74158.044206
2260.089002,740.205942,-4737.318029,-74004.825107
2260.091470,2368.659014,2960.823768,-72472.634111
2260.093937,-888.247130,2812.782580,-74311.263306
2260.096404,-1184.329507,-6957.935855,-75843.454302
2260.098871,0.000000,1332.370696,-71553.319513
2260.101339,-740.205942,-14804.118840,-74617.701505
2260.103806,-148.041188,-5329.482782,-70021.128517
2260.106273,-1628.453072,-10362.883188,-75537.016103
2260.108741,1036.288319,-1184.329507,-72625.853210
2260.111208,2072.576638,-3701.029710,-75996.673402
2260.113675,-740.205942,7994.224174,-72319.415011
2260.116143,-1184.329507,6809.894666,-72012.976812
2260.118610,444.123565,6365.771101,-72932.291410
2260.121077,148.041188,2812.782580,-75537.016103
2260.123544,740.205942,-2812.782580,-72625.853210
2260.126012,2220.617826,-1332.370696,-73238.729609
2260.128479,740.205942,-5773.606348,-74158.044206
2260.130946,2516.700203,3997.112087,-73545.167808
2260.133473,592.164754,7550.100608,-74158.044206
2260.136000,-1184.329507,15988.448347,-73391.948708
2260.138527,296.082377,11991.336260,-72779.072310
2260.141054,2368.659014,5033.400406,-73238.729609
2260.143581,444.123565,-3849.070898,-73238.729609
2260.146108,2812.782580,1480.411884,-74464.482406
2260.148635,148.041188,444.123565,-75077.358804
2260.151162,0.000000,-15544.324782,-79061.055394
2260.153689,1480.411884,17764.942608,-66190.651027
2260.156216,-2368.659014,4589.276840,-74770.920605
2260.158743,1628.453072,1332.370696,-75843.454302
2260.161270,1036.288319,5329.482782,-73851.606007
2260.163797,-1628.453072,-6513.812290,-75230.577904
2260.166324,1924.535449,15840.407159,-72319.415011
2260.168851,-1332.370696,-4293.194464,-76762.768900
2260.171378,-1036.288319,9030.512492,-71400.100414
2260.173905,-1776.494261,2812.782580,-69867.909418
2260.176432,-1776.494261,6217.729913,-75996.673402
2260.178959,2072.576638,4737.318029,-73698.386908
2260.181486,1036.288319,7254.018232,-75230.577904
2260.184013,-1776.494261,5921.647536,-73698.386908
2260.186540,-740.205942,-2664.741391,-73698.386908
2260.189067,148.041188,1036.288319,-68642.156621
2260.191594,-2072.576638,-3849.070898,-73698.386908
2260.194120,2220.617826,1776.494261,-75230.577904
2260.196647,0.000000,7994.224174,-76762.768900
2260.199174,2072.576638,14063.912898,-72012.976812
2260.201701,1184.329507,4885.359217,-73238.729609
2260.204228,1036.288319,-4145.153275,-72166.195912
2260.206755,-740.205942,1480.411884,-71246.881314
2260.209282,-444.123565,1480.411884,-76762.768900
2260.211809,1480.411884,-10066.800811,-79520.712692
2260.214336,1332.370696,-13619.789333,-70480.785816
2260.216863,1776.494261,-9030.512492,-66803.527426
2260.219390,2220.617826,-4737.318029,-73085.510509
2260.221917,0.000000,1924.535449,-79061.055394
2260.224444,-1924.535449,12731.542202,-75077.358804
2260.226971,-1332.370696,10066.800811,-73851.606007
2260.229498,296.082377,-6661.853478,-72625.853210
2260.232025,3404.947333,-9918.759623,-70021.128517
2260.234584,2220.617826,-9178.553681,-71859.757712
2260.237144,-148.041188,-7254.018232,-77222.426198
2260.239705,1924.535449,-7402.059420,-78448.178995
2260.242265,-1036.288319,6365.771101,-71706.538613
2260.244825,-592.164754,1776.494261,-70174.347617
2260.247386,-444.123565,-1036.288319,-72779.072310
2260.249946,-296.082377,-3552.988522,-73085.510509
2260.252507,3997.112087,8142.265362,-77069.207099
2260.255067,0.000000,6957.935855,-78141.740796
2260.257627,-1924.535449,-25611.125593,-76915.987999
2260.260188,2960.823768,11399.171507,-61440.858940
2260.262748,-2516.700203,-17320.819043,-76609.549800
2260.265309,740.205942,7550.100608,-73085.510509
2260.267869,-740.205942,-3108.864956,-78141.740796
2260.270429,740.205942,-1628.453072,-73545.167808
2260.272990,3108.864956,-2664.741391,-73545.167808
2260.275550,740.205942,-8290.306550,-70327.566716
2260.278111,-1036.288319,3404.947333,-68029.280222
2260.280671,-1036.288319,-8586.388927,-77222.426198
2260.283231,-1184.329507,740.205942,-77988.521696
2260.285792,1332.370696,1332.370696,-71553.319513
2260.288352,4145.153275,6513.812290,-71246.881314
2260.290913,0.000000,-6217.729913,-74617.701505
2260.293473,2072.576638,-1036.288319,-71400.100414
2260.296033,-592.164754,-3701.029710,-73851.606007
2260.298594,-1628.453072,-5625.565159,-74617.701505
2260.301154,3256.906145,-1036.288319,-76456.330700
2260.303715,1036.288319,1628.453072,-73545.167808
2260.306275,2220.617826,4293.194464,-70480.785816
2260.308836,592.164754,9622.677246,-71400.100414
2260.311396,148.041188,10658.965565,-74924.139704
2260.313956,-444.123565,10955.047942,-76149.892501
2260.316517,-444.123565,11695.253884,-75537.016103
2260.319077,-1184.329507,-3849.070898,-71553.319513
2260.321638,1332.370696,-8438.347739,-69714.690318
2260.324198,1332.370696,-7550.100608,-74311.263306
2260.326758,0.000000,2960.823768,-76609.549800
2260.329319,296.082377,10807.006753,-76303.111601
2260.331879,-444.123565,12879.583391,-74158.044206
2260.334440,-888.247130,7846.182985,-71859.757712
2260.337021,444.123565,7846.182985,-71400.100414
2260.339602,444.123565,3849.070898,-72012.976812
2260.342184,2072.576638,888.247130,-74617.701505
2260.344765,1776.494261,5773.606348,-75843.454302
2260.347347,592.164754,3108.864956,-75383.797003
2260.349928,-592.164754,-10214.842000,-74004.825107
2260.352510,-592.164754,6809.894666,-66650.308326
2260.355091,-592.164754,9326.594869,-70634.004916
2260.357673,592.164754,4589.276840,-77222.426198
2260.360254,1184.329507,740.205942,-79520.712692
2260.362836,2516.700203,10362.883188,-71859.757712
2260.365417,1036.288319,444.123565,-72779.072310
2260.367999,1184.329507,3552.988522,-71093.662214
2260.370580,-1776.494261,4293.194464,-72472.634111
2260.373161,-2220.617826,9030.512492,-76149.892501
2260.375743,2812.782580,10510.924376,-77835.302597
2260.378324,2812.782580,9030.512492,-72932.291410
2260.380906,1776.494261,-1184.329507,-71246.881314
2260.383487,148.041188,-9030.512492,-70940.443115
2260.386069,148.041188,-296.082377,-72625.853210
2260.388650,-1924.535449,3997.112087,-75996.673402
2260.391232,-1184.329507,8438.347739,-78601.398095
2260.393813,296.082377,7402.059420,-74924.139704
2260.396395,1776.494261,7994.224174,-69561.471218
2260.398976,1332.370696,-592.164754,-70787.224015
2260.401558,148.041188,-2072.576638,-73698.386908
2260.404139,-1776.494261,-296.082377,-76915.987999
2260.406720,-1776.494261,-5625.565159,-77682.083497
2260.409302,-296.082377,-17616.901420,-73085.510509
2260.411883,888.247130,-11547.212695,-66190.651027
2260.414465,740.205942,-5477.523971,-70327.566716
2260.417046,1332.370696,6513.812290,-77069.207099
2260.419628,-592.164754,14359.995275,-76762.768900
2260.422209,0.000000,8290.306550,-72625.853210
2260.424791,-1184.329507,-2516.700203,-71859.757712
2260.427372,-444.123565,-16432.571912,-71246.881314
2260.429954,-296.082377,-7698.141797,-70021.128517
2260.432535,1924.535449,-7698.141797,-76915.987999
2260.435117,0.000000,-5477.523971,-77222.426198
2260.437698,1332.370696,2072.576638,-74770.920605
2260.440290,888.247130,4885.359217,-69255.033019
2260.442882,-1924.535449,-3997.112087,-70940.443115
2260.445473,-1184.329507,-8734.430116,-74617.701505
2260.448065,3256.906145,17616.901420,-72779.072310
2260.450657,-296.082377,-4737.318029,-79214.274493
2260.453249,1924.535449,-11991.336260,-77069.207099
2260.455841,1036.288319,7994.224174,-65271.336430
2260.458433,-1332.370696,-15544.324782,-71706.538613
2260.461024,1628.453072,3997.112087,-73085.510509
2260.463616,-592.164754,-4589.276840,-78448.178995
2260.466208,-1628.453072,296.082377,-75843.454302
2260.468800,2812.782580,-6661.853478,-74464.482406
2260.471392,1924.535449,-8586.388927,-67876.061123
2260.473984,-740.205942,-3701.029710,-68642.156621
2260.476575,296.082377,-2368.659014,-76762.768900
2260.479167,-888.247130,9770.718434,-79367.493593
2260.481759,-1776.494261,5773.606348,-76762.768900
2260.484351,296.082377,740.205942,-69714.690318
2260.486943,740.205942,-11547.212695,-69561.471218
2260.489535,1776.494261,-10362.883188,-70634.004916
2260.492126,-592.164754,-5625.565159,-77222.426198
2260.494718,-740.205942,9030.512492,-77988.521696
2260.497310,-1332.370696,2812.782580,-77528.864398
2260.499902,-740.205942,4293.194464,-68795.375720
2260.502494,2220.617826,8882.471304,-65424.555529
2260.505086,1628.453072,14656.077652,-74158.044206
2260.507677,592.164754,11695.253884,-81206.122788
2260.510269,592.164754,10658.965565,-76303.111601
2260.512861,1036.288319,-3108.864956,-72166.195912
2260.515453,-1332.370696,-12435.459826,-69101.813920
2260.518045,-1184.329507,-11695.253884,-72932.291410
2260.520637,2072.576638,8438.347739,-74158.044206
2260.523228,1628.453072,18653.189738,-77835.302597
2260.525820,2220.617826,16136.489536,-76456.330700
2260.528412,1480.411884,8142.265362,-71706.538613
2260.531004,148.041188,1776.494261,-66956.746525
2260.533596,-2368.659014,-4737.318029,-72012.976812
2260.536187,-592.164754,-888.247130,-77528.864398
2260.538779,740.205942,12583.501014,-76609.549800
2260.541371,2516.700203,6661.853478,-72779.072310
2260.543968,1776.494261,-8290.306550,-68795.375720
2260.546565,888.247130,6957.935855,-64045.583633
2260.549163,-1628.453072,-7402.059420,-77375.645298
2260.551760,888.247130,12731.542202,-78448.178995
2260.554357,-2220.617826,8290.306550,-79980.369991
2260.556954,444.123565,5921.647536,-71093.662214
2260.559551,1332.370696,2960.823768,-68642.156621
2260.562149,-148.041188,-4145.153275,-70940.443115
2260.564746,0.000000,14952.160028,-72932.291410
2260.567343,888.247130,13175.665768,-79214.274493
2260.569940,148.041188,10658.965565,-79520.712692
2260.572537,-2812.782580,-8142.265362,-72166.195912
2260.575135,1036.288319,-7105.977043,-65730.993728
2260.577732,-740.205942,-8882.471304,-70327.566716
2260.580329,3849.070898,9326.594869,-76915.987999
2260.582926,740.205942,13323.706956,-80593.246390
2260.585523,1924.535449,20577.725188,-74617.701505
2260.588120,-1332.370696,-4145.153275,-68642.156621
2260.590718,-1924.535449,-5625.565159,-68335.718422
2260.593315,444.123565,-1924.535449,-71706.538613
2260.595912,1036.288319,-888.247130,-79980.369991
2260.598509,2072.576638,-11991.336260,-79673.931792
2260.601106,1184.329507,-8438.347739,-68488.937521
2260.603704,-148.041188,-13471.748144,-67876.061123
2260.606301,-592.164754,-1628.453072,-72625.853210
2260.608898,-1332.370696,6513.812290,-77835.302597
2260.611495,444.123565,20577.725188,-74924.139704
2260.614092,1628.453072,5773.606348,-74924.139704
2260.616689,2220.617826,-11103.089130,-72012.976812
2260.619287,1184.329507,-13767.830521,-68029.280222
2260.621884,-592.164754,-18061.024985,-72472.634111
2260.624481,-1480.411884,-6809.894666,-77988.521696
2260.627078,-1332.370696,7550.100608,-79061.055394
2260.629675,740.205942,6365.771101,-72472.634111
2260.632273,2072.576638,-9622.677246,-70787.224015
2260.634870,888.247130,-1332.370696,-66650.308326
2260.637467,1036.288319,7402.059420,-74158.044206
2260.640064,-148.041188,-3108.864956,-82431.875585
2260.642661,-1036.288319,4293.194464,-79214.274493
2260.645259,-2516.700203,-4293.194464,-69408.252119
2260.647858,-296.082377,-11991.336260,-66037.431928
2260.650458,2220.617826,-5181.441594,-70021.128517
2260.653058,1332.370696,-5477.523971,-76609.549800
2260.655658,1924.535449,5773.606348,-79214.274493
2260.658258,1184.329507,-3552.988522,-77375.645298
2260.660858,-1184.329507,-7402.059420,-67876.061123
2260.663458,-1480.411884,-9474.636058,-69255.033019
2260.666058,-296.082377,2220.617826,-73545.167808
2260.668658,1184.329507,11695.253884,-77835.302597
2260.671258,1332.370696,10658.965565,-78601.398095
2260.673858,1628.453072,-8438.347739,-72932.291410
2260.676458,0.000000,-18357.107362,-68642.156621
2260.679058,-444.123565,-15100.201217,-69561.471218
2260.681657,-888.247130,3256.906145,-75537.016103
2260.684257,444.123565,9622.677246,-80899.684589
2260.686857,1184.329507,9030.512492,-74617.701505
2260.689457,2812.782580,10362.883188,-66803.527426
2260.692057,2072.576638,6365.771101,-69101.813920
2260.694657,-1036.288319,6809.894666,-75537.016103
2260.697257,-1332.370696,12139.377449,-78448.178995
2260.699857,-296.082377,592.164754,-77835.302597
2260.702457,888.247130,-4885.359217,-71553.319513
2260.705057,592.164754,-12731.542202,-69101.813920
2260.707657,-148.041188,-3256.906145,-69867.909418
2260.710257,740.205942,9474.636058,-76303.111601
2260.712856,148.041188,22206.178260,-79367.493593
2260.715456,-740.205942,17024.736666,-75996.673402
2260.718056,-1036.288319,1332.370696,-70787.224015
2260.720656,1480.411884,-9918.759623,-68182.499322
2260.723256,-592.164754,-3256.906145,-71093.662214
2260.725856,1332.370696,7846.182985,-80746.465489
2260.728456,1628.453072,5181.441594,-79827.150892
2260.731056,592.164754,-2664.741391,-71400.100414
2260.733656,-1184.329507,-12731.542202,-67569.622924
2260.736256,-444.123565,888.247130,-72166.195912
2260.738856,-444.123565,9030.512492,-77069.207099
2260.741456,3404.947333,21762.054695,-77222.426198
2260.744056,444.123565,7846.182985,-76609.549800
2260.746655,2220.617826,-592.164754,-72166.195912
2260.749255,1924.535449,1628.453072,-66190.651027
2260.751854,296.082377,8734.430116,-72166.195912
2260.754453,-592.164754,5477.523971,-78601.398095
2260.757052,-740.205942,1184.329507,-77682.083497
2260.759651,1776.494261,0.000000,-70480.785816
2260.762249,1184.329507,-8734.430116,-69408.252119
2260.764848,1628.453072,2664.741391,-70327.566716
2260.767447,1332.370696,12139.377449,-76149.892501
2260.770046,148.041188,18949.272115,-77835.302597
2260.772645,-1628.453072,4293.194464,-78601.398095
2260.775243,-148.041188,-3552.988522,-69867.909418
2260.777842,-444.123565,-6809.894666,-67569.622924
2260.780441,740.205942,-12731.542202,-74464.482406
2260.783040,1036.288319,-13471.748144,-77375.645298
2260.785639,-148.041188,-3701.029710,-72779.072310
2260.788237,-1924.535449,-2812.782580,-72932.291410
2260.790836,-1924.535449,-1480.411884,-75383.797003
2260.793435,592.164754,6661.853478,-71706.538613
2260.796034,0.000000,13175.665768,-70327.566716
2260.798633,2516.700203,3997.112087,-76149.892501
2260.801232,592.164754,-3701.029710,-76762.768900
2260.803830,2072.576638,-12583.501014,-72472.634111
2260.806429,-1776.494261,-15692.365970,-71400.100414
2260.809028,-2516.700203,-12583.501014,-74158.044206
2260.811627,740.205942,6513.812290,-74617.701505
2260.814226,2220.617826,16432.571912,-73391.948708
2260.816824,740.205942,-1036.288319,-74617.701505
2260.819423,296.082377,-9474.636058,-70787.224015
2260.822022,-592.164754,-4441.235652,-74464.482406
2260.824621,-888.247130,5773.606348,-77528.864398
2260.827220,-1480.411884,740.205942,-77375.645298
2260.829818,296.082377,-4589.276840,-68948.594820
2260.832417,2220.617826,-8142.265362,-69255.033019
2260.835016,2368.659014,-10955.047942,-72779.072310
2260.837615,2368.659014,-1184.329507,-75996.673402
2260.840214,592.164754,-444.123565,-76303.111601
2260.842812,-2516.700203,-2220.617826,-74617.701505
2260.845411,0.000000,-7105.977043,-72625.853210
2260.848010,1628.453072,7402.059420,-68182.499322
2260.850609,1332.370696,4737.318029,-73238.729609
2260.853208,2516.700203,740.205942,-78907.836294
2260.855805,1184.329507,-8586.388927,-75230.577904
2260.858402,-444.123565,-7846.182985,-69255.033019
2260.861000,-444.123565,-13323.706956,-72472.634111
2260.863597,-1628.453072,-2812.782580,-75996.673402
2260.866195,0.000000,7994.224174,-75077.358804
2260.868792,1924.535449,19985.560434,-72012.976812
2260.871390,1036.288319,9326.594869,-73698.386908
2260.873987,3404.947333,14063.912898,-73391.948708
2260.876584,-148.041188,2368.659014,-74158.044206
2260.879182,-1184.329507,4885.359217,-73391.948708
2260.881779,-888.247130,-6513.812290,-74924.139704
2260.884377,148.041188,-5773.606348,-73545.167808
2260.886974,1036.288319,-8290.306550,-73085.510509
2260.889572,1480.411884,5921.647536,-73851.606007
2260.892169,740.205942,11843.295072,-73391.948708
2260.894766,-888.247130,17172.777854,-73391.948708
2260.897364,-1628.453072,12435.459826,-74770.920605
2260.899961,-1480.411884,-5329.482782,-75537.016103
2260.902559,888.247130,-4589.276840,-69561.471218
2260.905156,2516.700203,11103.089130,-69714.690318
2260.907754,-148.041188,1628.453072,-79673.931792
2260.910351,-592.164754,-4145.153275,-78601.398095
2260.912949,592.164754,1628.453072,-68335.718422
2260.915546,-444.123565,740.205942,-70021.128517
2260.918143,0.000000,7105.977043,-74617.701505
2260.920741,888.247130,14952.160028,-77682.083497
2260.923338,592.164754,11843.295072,-76456.330700
2260.925936,1036.288319,3849.070898,-73851.606007
2260.928533,1036.288319,4293.194464,-68642.156621
2260.931131,888.247130,4145.153275,-69101.813920
2260.933728,-2072.576638,2072.576638,-75230.577904
2260.936325,-296.082377,2812.782580,-79980.369991
2260.938923,1480.411884,2368.659014,-72625.853210
2260.941520,1184.329507,0.000000,-70787.224015
2260.944118,1924.535449,3256.906145,-71859.757712
2260.946715,1332.370696,12731.542202,-73085.510509
2260.949313,-592.164754,10807.006753,-75077.358804
2260.951910,-444.123565,7550.100608,-75537.016103
2260.954507,-888.247130,-5477.523971,-74770.920605
2260.957105,-592.164754,-8142.265362,-71400.100414
2260.959698,1628.453072,-12287.418637,-71553.319513
2260.962292,2072.576638,-10955.047942,-72319.415011
2260.964886,148.041188,-7846.182985,-73545.167808
2260.967479,-296.082377,2664.741391,-75996.673402
2260.970073,-2368.659014,5033.400406,-76149.892501
2260.972667,-1332.370696,10214.842000,-71706.538613
2260.975260,1036.288319,3701.029710,-71400.100414
2260.977854,1036.288319,1776.494261,-72625.853210
2260.980448,1332.370696,-8438.347739,-76456.330700
2260.983041,1332.370696,-7402.059420,-73698.386908
2260.985635,-592.164754,-15396.283594,-73085.510509
2260.988228,-1628.453072,-4589.276840,-73545.167808
2260.990822,-1036.288319,7846.182985,-73851.606007
2260.993416,2368.659014,3997.112087,-74464.482406
2260.996009,1036.288319,2664.741391,-71400.100414
2260.998603,2812.782580,-3701.029710,-72319.415011
2261.001197,1924.535449,2368.659014,-74004.825107
2261.003790,-1480.411884,2072.576638,-75690.235202
2261.006384,444.123565,-8734.430116,-77528.864398
2261.008977,-2368.659014,-10807.006753,-71246.881314
2261.011571,1628.453072,-6513.812290,-67263.184724
2261.014165,2812.782580,-1480.411884,-74464.482406
2261.016758,-296.082377,-3552.988522,-78754.617194
2261.019352,-592.164754,-1480.411884,-74617.701505
2261.021946,-296.082377,1776.494261,-70021.128517
2261.024539,-1036.288319,444.123565,-72625.853210
2261.027133,-592.164754,296.082377,-73698.386908
2261.029727,888.247130,-296.082377,-72932.291410
2261.032320,296.082377,-6365.771101,-73851.606007
2261.034914,592.164754,-9918.759623,-74770.920605
2261.037507,1776.494261,-4441.235652,-72166.195912
2261.040101,-148.041188,2960.823768,-73391.948708
2261.042618,-1628.453072,2664.741391,-75690.235202
2261.045135,-148.041188,17172.777854,-71553.319513
2261.047651,444.123565,14063.912898,-72625.853210
2261.050168,740.205942,13619.789333,-74924.139704
2261.052685,1184.329507,6217.729913,-75383.797003
2261.055202,1628.453072,444.123565,-70480.785816
2261.057718,888.247130,-8438.347739,-70940.443115
2261.060235,-1332.370696,-7402.059420,-76303.111601
2261.062752,-740.205942,148.041188,-75383.797003
2261.065269,888.247130,8142.265362,-72625.853210
2261.067785,3108.864956,14952.160028,-73545.167808
2261.070302,2072.576638,10510.924376,-74464.482406
2261.072819,740.205942,12435.459826,-71246.881314
2261.075336,148.041188,-6069.688724,-73698.386908
2261.077852,0.000000,8586.388927,-71246.881314
2261.080369,-2220.617826,-4737.318029,-79367.493593
2261.082886,444.123565,-1628.453072,-77069.207099
2261.085403,2812.782580,0.000000,-72166.195912
2261.087919,1924.535449,2220.617826,-69101.813920
2261.090436,888.247130,6809.894666,-67263.184724
2261.092953,1332.370696,13767.830521,-76456.330700
2261.095470,-1628.453072,6957.935855,-83657.628382
2261.097986,-444.123565,13619.789333,-75383.797003
2261.100503,444.123565,3404.947333,-68029.280222
2261.103020,1924.535449,1924.535449,-67416.403824
2261.105537,2812.782580,-6661.853478,-74924.139704
2261.108053,1480.411884,3256.906145,-75690.235202
2261.110570,148.041188,6217.729913,-75690.235202
2261.113087,-3256.906145,4589.276840,-76149.892501
2261.115604,-296.082377,1480.411884,-73391.948708
2261.118120,592.164754,15248.242405,-67263.184724
2261.120637,1332.370696,7846.182985,-72932.291410
2261.123154,-296.082377,1480.411884,-77375.645298
2261.125671,2812.782580,-592.164754,-75843.454302
2261.128187,-1036.288319,-12139.377449,-74770.920605
2261.130704,-296.082377,-21614.013506,-72625.853210
2261.133221,-1036.288319,-11251.130318,-68795.375720
2261.135738,1036.288319,-4589.276840,-72932.291410
2261.138254,888.247130,7994.224174,-77682.083497
2261.140771,1628.453072,7994.224174,-78754.617194
2261.143305,3404.947333,11991.336260,-69408.252119
2261.145838,-888.247130,0.000000,-69867.909418
2261.148372,-148.041188,-4441.235652,-73391.948708
2261.150906,-444.123565,-10955.047942,-76303.111601
2261.153439,888.247130,-5625.565159,-74464.482406
2261.155973,1332.370696,-13619.789333,-74158.044206
2261.158506,2072.576638,5329.482782,-70940.443115
2261.161040,1776.494261,148.041188,-72625.853210
2261.163573,-148.041188,-4441.235652,-74311.263306
2261.166107,-1480.411884,11695.253884,-70940.443115
2261.168641,-1036.288319,2516.700203,-76915.987999
2261.171174,-740.205942,-5921.647536,-75077.358804
2261.173708,1776.494261,-1480.411884,-74924.139704
2261.176241,1776.494261,-18505.148550,-73391.948708
2261.178775,148.041188,-3552.988522,-66956.746525
2261.181309,148.041188,-6513.812290,-74004.825107
2261.183842,-2220.617826,0.000000,-79367.493593
2261.186376,-1036.288319,-1332.370696,-76609.549800
2261.188909,296.082377,11399.171507,-69714.690318
2261.191443,148.041188,-592.164754,-70327.566716
2261.193976,2220.617826,-3256.906145,-74464.482406
2261.196510,592.164754,-4589.276840,-72779.072310
2261.199044,-296.082377,-6661.853478,-73085.510509
2261.201577,-888.247130,-9770.718434,-75843.454302
2261.204111,-1480.411884,-2960.823768,-75537.016103
2261.206644,-296.082377,2960.823768,-71093.662214
2261.209178,2072.576638,9770.718434,-71093.662214
2261.211712,1924.535449,15692.365970,-72472.634111
2261.214245,1776.494261,16876.695478,-76303.111601
2261.216779,-296.082377,11103.089130,-77682.083497
2261.219312,-148.041188,5329.482782,-72932.291410
2261.221846,-1332.370696,-6513.812290,-70634.004916
2261.224380,296.082377,-9622.677246,-72166.195912
2261.226913,1480.411884,-2368.659014,-74617.701505
2261.229447,3108.864956,5477.523971,-77069.207099
2261.231980,1332.370696,6809.894666,-75077.358804
2261.234514,1480.411884,16580.613101,-72166.195912
2261.237047,-2072.576638,9918.759623,-72625.853210
2261.239581,-2220.617826,740.205942,-73545.167808
2261.242115,3552.988522,-444.123565,-72166.195912
2261.244661,1332.370696,14211.954086,-72625.853210
2261.247208,-4145.153275,-18653.189738,-82891.532884
2261.249755,3404.947333,1480.411884,-71246.881314
2261.252302,-444.123565,11103.089130,-66037.431928
2261.254849,-1332.370696,888.247130,-69561.471218
2261.257396,1628.453072,15248.242405,-77988.521696
2261.259943,-444.123565,6217.729913,-79980.369991
2261.262490,3108.864956,21910.095883,-72012.976812
2261.265037,1924.535449,888.247130,-74004.825107
2261.267584,-148.041188,-7698.141797,-69867.909418
2261.270131,-592.164754,-10066.800811,-70480.785816
2261.272678,2072.576638,3552.988522,-77835.302597
2261.275225,148.041188,6365.771101,-76915.987999
2261.277772,3552.988522,11251.130318,-74464.482406
2261.280319,148.041188,7994.224174,-71706.538613
2261.282866,1332.370696,6217.729913,-70021.128517
2261.285413,-148.041188,5329.482782,-72625.853210
2261.287960,-1924.535449,-1184.329507,-74924.139704
2261.290507,-1776.494261,-2516.700203,-77835.302597
2261.293054,0.000000,-13323.706956,-76456.330700
2261.295600,1036.288319,-17468.860231,-67569.622924
2261.298147,888.247130,-10955.047942,-67416.403824
2261.300694,-592.164754,-740.205942,-77988.521696
2261.303241,0.000000,9178.553681,-79214.274493
2261.305788,296.082377,16432.571912,-74004.825107
2261.308335,-1628.453072,8586.388927,-70327.566716
2261.310882,-148.041188,-8586.388927,-72625.853210
2261.313429,2812.782580,-7550.100608,-70787.224015
2261.315976,2220.617826,-5477.523971,-72472.634111
2261.318523,-888.247130,-13619.789333,-79061.055394
2261.321070,-444.123565,-6957.935855,-74617.701505
2261.323617,1776.494261,12139.377449,-68642.156621
2261.326164,-1332.370696,-2072.576638,-72012.976812
2261.328711,888.247130,-10807.006753,-73851.606007
2261.331258,1776.494261,3552.988522,-72625.853210
2261.333805,3108.864956,9474.636058,-75383.797003
2261.336352,888.247130,-6809.894666,-79061.055394
2261.338899,-1184.329507,-10066.800811,-72472.634111
2261.341446,-888.247130,-16136.489536,-70787.224015
2261.343993,-444.123565,-6661.853478,-73238.729609
2261.346548,1776.494261,592.164754,-77682.083497
2261.349103,2812.782580,13915.871710,-73851.606007
2261.351658,1924.535449,7402.059420,-75077.358804
2261.354213,-148.041188,-2664.741391,-73698.386908
2261.356768,-296.082377,-4885.359217,-69255.033019
2261.359323,-1184.329507,-11103.089130,-72472.634111
2261.361878,-1628.453072,-11251.130318,-76762.768900
2261.364434,0.000000,-3552.988522,-78448.178995
2261.366989,1628.453072,1480.411884,-73391.948708
2261.369544,-444.123565,1924.535449,-71400.100414
2261.372099,-740.205942,10807.006753,-70174.347617
2261.374654,-296.082377,14656.077652,-73238.729609
2261.377209,1480.411884,23390.507767,-77069.207099
2261.379764,-444.123565,8882.471304,-79520.712692
2261.382319,-740.205942,2516.700203,-70940.443115
2261.384874,2664.741391,-12287.418637,-68335.718422
2261.387429,888.247130,-11103.089130,-73545.167808
2261.389984,-1776.494261,-1776.494261,-77988.521696
2261.392540,-296.082377,12435.459826,-75537.016103
2261.395095,148.041188,13471.748144,-74617.701505
2261.397650,0.000000,13915.871710,-71246.881314
2261.400205,888.247130,5181.441594,-71553.319513
2261.402760,1480.411884,-6957.935855,-72012.976812
2261.405315,2072.576638,14211.954086,-71859.757712
2261.407870,444.123565,-148.041188,-79061.055394
2261.410425,1332.370696,-1184.329507,-79367.493593
2261.412980,740.205942,7698.141797,-67263.184724
2261.415535,-444.123565,-4145.153275,-67263.184724
2261.418090,2220.617826,14804.118840,-71553.319513
2261.420645,148.041188,10955.047942,-80133.589091
2261.423201,1628.453072,20429.683999,-77222.426198
2261.425756,-444.123565,6957.935855,-74311.263306
2261.428311,1332.370696,-2812.782580,-70634.004916
2261.430866,-2072.576638,-11843.295072,-69867.909418
2261.433421,-1480.411884,-7994.224174,-73085.510509
2261.435976,-444.123565,7402.059420,-78754.617194
2261.438531,0.000000,12139.377449,-77528.864398
2261.441086,0.000000,17468.860231,-72932.291410
2261.443641,148.041188,1628.453072,-70021.128517
2261.446196,1332.370696,6217.729913,-69255.033019
2261.448758,-1628.453072,-1332.370696,-73851.606007
2261.451319,0.000000,296.082377,-78754.617194
2261.453881,740.205942,-12583.501014,-79367.493593
2261.456442,3552.988522,-18505.148550,-70480.785816
2261.459004,1332.370696,-17468.860231,-65118.117330
2261.461565,-1184.329507,-7105.977043,-74617.701505
2261.464126,296.082377,11103.089130,-79061.055394
2261.466688,-296.082377,17172.777854,-76456.330700
2261.469249,592.164754,13027.624579,-72932.291410
2261.471811,888.247130,-6809.894666,-71400.100414
2261.474372,2072.576638,-10658.965565,-68795.375720
2261.476934,1480.411884,-10362.883188,-72166.195912
2261.479495,296.082377,-7846.182985,-76915.987999
2261.482057,-888.247130,-2664.741391,-78141.740796
2261.484618,740.205942,3404.947333,-71553.319513
2261.487179,1184.329507,-6957.935855,-71400.100414
2261.489741,888.247130,-1184.329507,-69867.909418
2261.492302,2072.576638,12287.418637,-71859.757712
2261.494864,296.082377,2368.659014,-79520.712692
2261.497425,-296.082377,-10658.965565,-82431.875585
2261.499987,-1332.370696,-11843.295072,-69408.252119
2261.502548,740.205942,-14804.118840,-66650.308326
2261.505110,-296.082377,-10658.965565,-69714.690318
2261.507671,-296.082377,-1776.494261,-77375.645298
2261.510232,1480.411884,15692.365970,-76915.987999
2261.512794,-1480.411884,8882.471304,-77682.083497
2261.515355,444.123565,-1776.494261,-71246.881314
2261.517917,0.000000,-13767.830521,-68335.718422
2261.520478,444.123565,-9622.677246,-69255.033019
2261.523040,-888.247130,-10510.924376,-79367.493593
2261.525601,444.123565,888.247130,-80286.808190
2261.528163,1036.288319,3701.029710,-74158.044206
2261.530724,1924.535449,4885.359217,-67876.061123
2261.533285,-740.205942,11547.212695,-69101.813920
2261.535847,888.247130,21614.013506,-75077.358804
2261.538408,888.247130,16284.530724,-80133.589091
2261.540970,888.247130,11399.171507,-76456.330700
2261.543531,1628.453072,-8290.306550,-70787.224015
2261.546093,1332.370696,-14952.160028,-68335.718422
2261.548654,888.247130,-12287.418637,-72012.976812
2261.551221,-296.082377,2664.741391,-76762.768900
2261.553788,148.041188,12879.583391,-77988.521696
2261.556354,1628.453072,17468.860231,-73545.167808
2261.558921,1036.288319,9326.594869,-71706.538613
2261.561488,1924.535449,3997.112087,-68795.375720
2261.564055,-148.041188,-1924.535449,-72625.853210
2261.566622,592.164754,6069.688724,-76609.549800
2261.569189,296.082377,8586.388927,-80593.246390
2261.571755,-740.205942,-12139.377449,-77682.083497
2261.574322,1036.288319,8586.388927,-64198.802732
2261.576889,-1332.370696,1628.453072,-67416.403824
2261.579456,1628.453072,14359.995275,-75843.454302
2261.582023,148.041188,18801.230927,-79673.931792
2261.584589,-148.041188,14211.954086,-78448.178995
2261.587156,-740.205942,-4441.235652,-72779.072310
2261.589723,444.123565,-12139.377449,-67722.842023
2261.592290,148.041188,-7402.059420,-67569.622924
2261.594857,-1480.411884,2960.823768,-75537.016103
2261.597424,-1036.288319,12435.459826,-81512.560987
2261.599990,2072.576638,20281.642811,-75690.235202
2261.602557,1924.535449,5921.647536,-68182.499322
2261.605124,-2072.576638,-8438.347739,-70327.566716
2261.607691,148.041188,2664.741391,-71400.100414
2261.610258,-296.082377,-2220.617826,-78754.617194
2261.612824,444.123565,-10214.842000,-79520.712692
2261.615391,2664.741391,-19393.395680,-72779.072310
2261.617958,740.205942,-13767.830521,-66343.870127
2261.620525,296.082377,-4441.235652,-70327.566716
2261.623092,592.164754,6069.688724,-77835.302597
2261.625659,740.205942,18209.066173,-77222.426198
2261.628225,-148.041188,8438.347739,-74004.825107
2261.630792,2220.617826,-3108.864956,-71400.100414
2261.633359,1332.370696,-16284.530724,-69255.033019
2261.635926,1628.453072,-15544.324782,-72166.195912
2261.638493,-2072.576638,-14508.036463,-76915.987999
2261.641059,1332.370696,6661.853478,-77835.302597
2261.643626,444.123565,7402.059420,-74004.825107
2261.646193,-1184.329507,-12139.377449,-73085.510509
2261.648760,740.205942,-5033.400406,-67263.184724
2261.651327,592.164754,4293.194464,-74770.920605
2261.653896,1480.411884,2960.823768,-77835.302597
2261.656466,-2368.659014,-3108.864956,-72932.291410
2261.659036,-1332.370696,-15544.324782,-71553.319513
2261.661605,2664.741391,-16580.613101,-69561.471218
2261.664175,1480.411884,1776.494261,-70174.347617
2261.666744,1924.535449,10214.842000,-77835.302597
2261.669314,1184.329507,11547.212695,-77988.521696
2261.671884,-148.041188,-1332.370696,-76149.892501
2261.674453,-148.041188,-8438.347739,-67722.842023
2261.677023,-1036.288319,-15396.283594,-68795.375720
2261.679593,3256.906145,-296.082377,-74770.920605
2261.682162,1480.411884,2072.576638,-80133.589091
2261.684732,1776.494261,8734.430116,-76303.111601
2261.687301,1924.535449,8142.265362,-69408.252119
2261.689871,148.041188,7698.141797,-67722.842023
2261.692441,-1184.329507,13471.748144,-73851.606007
2261.695010,-1628.453072,12139.377449,-78907.836294
2261.697580,0.000000,10362.883188,-75843.454302
2261.700150,2220.617826,-2516.700203,-71706.538613
2261.702719,-148.041188,-12287.418637,-71553.319513
2261.705289,592.164754,-8882.471304,-71093.662214
2261.707858,-1332.370696,6661.853478,-72779.072310
2261.710428,-1480.411884,14359.995275,-77528.864398
2261.712998,592.164754,13619.789333,-78294.959896
2261.715567,740.205942,5773.606348,-72012.976812
2261.718137,2664.741391,3404.947333,-68488.937521
2261.720706,592.164754,444.123565,-68182.499322
2261.723276,1480.411884,6365.771101,-75996.673402
2261.725846,0.000000,14359.995275,-78448.178995
2261.728415,-3404.947333,-6069.688724,-77069.207099
2261.730985,2220.617826,9030.512492,-66497.089226
2261.733555,1184.329507,296.082377,-69867.909418
2261.736124,3108.864956,18801.230927,-71553.319513
2261.738694,0.000000,4589.276840,-80593.246390
2261.741263,1924.535449,13175.665768,-75843.454302
2261.743833,-2220.617826,-7846.182985,-74924.139704
2261.746403,1332.370696,-3701.029710,-69561.471218
2261.748972,1184.329507,3701.029710,-70480.785816
2261.751542,592.164754,9326.594869,-74924.139704
2261.754112,3997.112087,16432.571912,-77528.864398
2261.756683,1628.453072,6513.812290,-74464.482406
2261.759255,1924.535449,-3997.112087,-70940.443115
2261.761827,-1332.370696,-4737.318029,-69561.471218
2261.764399,-888.247130,-7254.018232,-75843.454302
2261.766971,-1776.494261,-12879.583391,-77375.645298
2261.769543,296.082377,-6217.729913,-73238.729609
2261.772115,1036.288319,-8438.347739,-72625.853210
2261.774687,1628.453072,-888.247130,-73391.948708
2261.777259,296.082377,2220.617826,-72472.634111
2261.779830,-148.041188,10807.006753,-72625.853210
2261.782402,-2368.659014,5773.606348,-76303.111601
2261.784974,-888.247130,-888.247130,-74924.139704
2261.787546,1332.370696,-7994.224174,-72012.976812
2261.790118,2220.617826,-8586.388927,-69867.909418
2261.792690,592.164754,-23390.507767,-75843.454302
2261.795262,3552.988522,6809.894666,-70940.443115
2261.797834,1184.329507,9326.594869,-74924.139704
2261.800406,-1332.370696,-8290.306550,-74311.263306
2261.802977,-444.123565,-592.164754,-69714.690318
2261.805549,1332.370696,-1036.288319,-72012.976812
2261.808121,1776.494261,-7550.100608,-77682.083497
2261.810693,1628.453072,-6513.812290,-76456.330700
2261.813265,1332.370696,-5773.606348,-71553.319513
2261.815837,0.000000,-7550.100608,-71400.100414
2261.818409,1184.329507,-740.205942,-73698.386908
2261.820981,296.082377,9030.512492,-72779.072310
2261.823553,888.247130,2960.823768,-75537.016103
2261.826124,2220.617826,-5181.441594,-76456.330700
2261.828696,1332.370696,-9474.636058,-72319.415011
2261.831268,1924.535449,-6661.853478,-71246.881314
2261.833840,-592.164754,-3552.988522,-75996.673402
2261.836412,-1184.329507,3849.070898,-76762.768900
2261.838984,-1924.535449,9622.677246,-73391.948708
2261.841556,1776.494261,10362.883188,-70940.443115
2261.844128,1776.494261,16432.571912,-73851.606007
2261.846700,444.123565,6809.894666,-76762.768900
2261.849271,592.164754,7550.100608,-71246.881314
2261.851843,-592.164754,-2220.617826,-72779.072310
2261.854415,-1628.453072,-4737.318029,-74617.701505
2261.856987,-1332.370696,-4885.359217,-73698.386908
2261.859560,592.164754,1776.494261,-72625.853210
2261.862133,1924.535449,6365.771101,-73851.606007
2261.864705,1628.453072,10658.965565,-74770.920605
2261.867278,1332.370696,15840.407159,-72932.291410
2261.869851,-1776.494261,13323.706956,-70787.224015
2261.872424,-2220.617826,-296.082377,-75077.358804
2261.874996,-1924.535449,-7846.182985,-76762.768900
2261.877569,3701.029710,11103.089130,-71859.757712
2261.880142,2220.617826,9622.677246,-72472.634111
2261.882715,1332.370696,4441.235652,-72625.853210
2261.885287,740.205942,3997.112087,-73391.948708
2261.887860,1332.370696,11103.089130,-74004.825107
2261.890433,296.082377,10362.883188,-74311.263306
2261.893006,-1776.494261,1776.494261,-74464.482406
2261.895578,2072.576638,-1036.288319,-73085.510509
2261.898151,2072.576638,-3997.112087,-72625.853210
2261.900724,2960.823768,9326.594869,-72319.415011
2261.903297,444.123565,9178.553681,-75077.358804
2261.905869,296.082377,5477.523971,-75537.016103
2261.908442,-444.123565,3701.029710,-73545.167808
2261.911015,-592.164754,888.247130,-71246.881314
2261.913588,-1036.288319,-6513.812290,-74004.825107
2261.916160,1184.329507,-9918.759623,-75996.673402
2261.918733,740.205942,-11547.212695,-73698.386908
2261.921306,444.123565,-10955.047942,-71859.757712
2261.923879,-444.123565,-3701.029710,-73545.167808
2261.926451,-1924.535449,1184.329507,-75537.016103
2261.929024,-148.041188,7402.059420,-73698.386908
2261.931597,148.041188,5773.606348,-73085.510509
2261.934170,444.123565,4441.235652,-72625.853210
2261.936742,1480.411884,-4441.235652,-73698.386908
2261.939315,2072.576638,-7105.977043,-71553.319513
2261.941888,-444.123565,-8290.306550,-71553.319513
2261.944461,-1332.370696,2220.617826,-73391.948708
2261.947033,-296.082377,-1776.494261,-75996.673402
2261.949606,2220.617826,-5921.647536,-74924.139704
2261.952179,2220.617826,296.082377,-69408.252119
2261.954752,1184.329507,6957.935855,-69255.033019
2261.957324,1332.370696,-10658.965565,-78294.959896
2261.959897,-888.247130,-8734.430116,-78141.740796
2261.962471,-592.164754,-7105.977043,-71400.100414
2261.965044,888.247130,-1184.329507,-70634.004916
2261.967618,2220.617826,-4441.235652,-73545.167808
2261.970191,3552.988522,8142.265362,-72932.291410
2261.972765,296.082377,3108.864956,-73085.510509
2261.975338,148.041188,-6957.935855,-75690.235202
2261.977912,-1332.370696,-6957.935855,-72779.072310
2261.980485,0.000000,-5625.565159,-72932.291410
2261.983059,-1332.370696,-2812.782580,-75230.577904
2261.985632,740.205942,6365.771101,-74770.920605
2261.988206,2516.700203,14211.954086,-70327.566716
2261.990779,296.082377,7550.100608,-72932.291410
2261.993353,2072.576638,13323.706956,-75537.016103
2261.995926,-1776.494261,8734.430116,-75230.577904
2261.998500,-1184.329507,8438.347739,-72319.415011
2262.001073,-592.164754,-3256.906145,-73085.510509
2262.003647,296.082377,-3404.947333,-72932.291410
2262.006220,1776.494261,-2664.741391,-72319.415011
2262.008794,2072.576638,3701.029710,-73545.167808
2262.011367,444.123565,6957.935855,-75690.235202
2262.013941,-1480.411884,10510.924376,-73085.510509
2262.016514,-148.041188,7846.182985,-72779.072310
2262.019088,-1628.453072,8586.388927,-72472.634111
2262.021661,-296.082377,-12435.459826,-75077.358804
2262.024235,3552.988522,28423.908173,-68795.375720
2262.026808,444.123565,-14508.036463,-81206.122788
2262.029382,2960.823768,13915.871710,-71859.757712
2262.031955,-444.123565,1332.370696,-71400.100414
2262.034529,-740.205942,18801.230927,-69408.252119
2262.037102,-1480.411884,4293.194464,-77375.645298
2262.039676,2368.659014,3552.988522,-76762.768900
2262.042249,2368.659014,10214.842000,-71400.100414
2262.044823,1332.370696,-7105.977043,-74311.263306
2262.047396,2516.700203,1036.288319,-73238.729609
2262.049970,-2072.576638,5329.482782,-72625.853210
2262.052543,148.041188,14359.995275,-73545.167808
2262.055117,-1924.535449,-296.082377,-76915.987999
2262.057690,592.164754,3552.988522,-71553.319513
2262.060264,740.205942,-5329.482782,-72012.976812
2262.062837,1776.494261,-6513.812290,-75077.358804
2262.065410,-444.123565,-18949.272115,-74464.482406
2262.067983,-1480.411884,-3997.112087,-70021.128517
2262.070556,-2220.617826,-8586.388927,-75077.358804
2262.073129,-444.123565,-1332.370696,-77222.426198
2262.075702,1924.535449,9178.553681,-71859.757712
2262.078275,1036.288319,6513.812290,-72012.976812
2262.080848,1036.288319,-1776.494261,-74464.482406
2262.083421,444.123565,-1924.535449,-74924.139704
2262.085993,1332.370696,-7105.977043,-72166.195912
2262.088566,1036.288319,-6661.853478,-73085.510509
2262.091139,1628.453072,-3108.864956,-74924.139704
2262.093712,1332.370696,-3404.947333,-73545.167808
2262.096285,2664.741391,10955.047942,-71246.881314
2262.098858,-740.205942,-15100.201217,-76915.987999
2262.101431,1628.453072,7402.059420,-69714.690318
2262.104004,-1628.453072,-7105.977043,-75230.577904
2262.106577,-2960.823768,-5329.482782,-74924.139704
2262.109150,1332.370696,-13915.871710,-74004.825107
2262.111723,1924.535449,148.041188,-71400.100414
2262.114296,-148.041188,-592.164754,-74311.263306
2262.116869,1480.411884,148.041188,-75077.358804
2262.119442,-592.164754,296.082377,-72932.291410
2262.122014,-1184.329507,-4293.194464,-72319.415011
2262.124587,-444.123565,-8882.471304,-74770.920605
2262.127160,0.000000,-592.164754,-74770.920605
2262.129733,3108.864956,7846.182985,-72779.072310
2262.132306,-3256.906145,-740.205942,-74617.701505
2262.134879,0.000000,10510.924376,-72166.195912
2262.137452,444.123565,12731.542202,-72625.853210
2262.140025,-148.041188,12287.418637,-74311.263306
2262.142598,0.000000,8586.388927,-75077.358804
2262.145171,148.041188,740.205942,-73698.386908
2262.147744,3997.112087,-1036.288319,-70327.566716
2262.150317,740.205942,-2368.659014,-73851.606007
2262.152890,592.164754,444.123565,-74924.139704
2262.155463,148.041188,2072.576638,-74770.920605
2262.158035,444.123565,10362.883188,-73238.729609
2262.160608,-148.041188,19837.519246,-71400.100414
2262.163181,1184.329507,-4145.153275,-75077.358804
2262.165754,1480.411884,-2368.659014,-72319.415011
2262.168327,592.164754,14063.912898,-70174.347617
2262.170900,0.000000,-2516.700203,-80593.246390
2262.173473,0.000000,3404.947333,-76762.768900
2262.176046,-1332.370696,9326.594869,-69101.813920
2262.178618,-1628.453072,12139.377449,-67569.622924
2262.181191,2368.659014,3849.070898,-77528.864398
2262.183764,1036.288319,6069.688724,-75996.673402
2262.186337,592.164754,11251.130318,-72625.853210
2262.188910,-2812.782580,-3701.029710,-75383.797003
2262.191483,296.082377,-888.247130,-74004.825107
2262.194056,-1036.288319,4293.194464,-70021.128517
2262.196628,-1036.288319,10807.006753,-72625.853210
2262.199201,-148.041188,444.123565,-77069.207099
2262.201774,2516.700203,1480.411884,-74158.044206
2262.204347,-740.205942,-1628.453072,-72932.291410
2262.206920,-1184.329507,-10214.842000,-75230.577904
2262.209493,0.000000,-15988.448347,-73545.167808
2262.212066,-1776.494261,-6069.688724,-68948.594820
2262.214638,444.123565,-4441.235652,-74770.920605
2262.217211,1036.288319,-2072.576638,-78601.398095
2262.219784,2220.617826,3997.112087,-73698.386908
2262.222357,1776.494261,5921.647536,-69101.813920
2262.224930,740.205942,-148.041188,-73391.948708
2262.227503,-740.205942,-1924.535449,-73698.386908
2262.230075,740.205942,-7698.141797,-73698.386908
2262.232648,592.164754,-2960.823768,-73238.729609
2262.235221,444.123565,-7846.182985,-75537.016103
2262.237794,592.164754,-6809.894666,-72319.415011
2262.240367,1332.370696,9770.718434,-70787.224015
2262.242940,-444.123565,-10955.047942,-76915.987999
2262.245513,-444.123565,3701.029710,-71246.881314
2262.248085,-740.205942,-5477.523971,-74924.139704
2262.250658,1776.494261,-8142.265362,-76915.987999
2262.253231,1184.329507,-6513.812290,-71553.319513
2262.255804,888.247130,-5181.441594,-72625.853210
2262.258377,296.082377,5033.400406,-72932.291410
2262.260950,-2368.659014,-6069.688724,-78141.740796
2262.263523,740.205942,-1924.535449,-72625.853210
2262.266095,-1184.329507,-2368.659014,-69255.033019
2262.268668,592.164754,-5329.482782,-75383.797003
2262.271240,-148.041188,-2812.782580,-75843.454302
2262.273811,2516.700203,10214.842000,-72625.853210
2262.276383,-1776.494261,11399.171507,-71859.757712
2262.278955,-1480.411884,5773.606348,-74158.044206
2262.281526,888.247130,12731.542202,-73698.386908
2262.284098,-1184.329507,9474.636058,-73698.386908
2262.286670,0.000000,8438.347739,-73391.948708
2262.289241,592.164754,-2220.617826,-73851.606007
2262.291813,1480.411884,-2812.782580,-71706.538613
2262.294385,1184.329507,-1332.370696,-73085.510509
2262.296956,-444.123565,4145.153275,-74924.139704
2262.299528,1036.288319,6957.935855,-74311.263306
2262.302100,592.164754,11991.336260,-72319.415011
2262.304671,296.082377,5625.565159,-74464.482406
2262.307243,2812.782580,-1924.535449,-72319.415011
2262.309815,1480.411884,6513.812290,-71093.662214
2262.312386,-592.164754,3404.947333,-75996.673402
2262.314958,740.205942,3997.112087,-81052.903688
2262.317529,-740.205942,7846.182985,-71093.662214
2262.320101,592.164754,11547.212695,-66343.870127
2262.322673,1480.411884,1924.535449,-74770.920605
2262.325244,1036.288319,4737.318029,-77528.864398
2262.327816,1480.411884,9918.759623,-73085.510509
2262.330388,-1036.288319,5181.441594,-75996.673402
2262.332959,-1628.453072,-2368.659014,-75690.235202
2262.335531,-444.123565,1776.494261,-71859.757712
2262.338103,0.000000,11251.130318,-68182.499322
2262.340674,-740.205942,2220.617826,-75996.673402
2262.343246,1924.535449,-4737.318029,-77682.083497
2262.345818,1332.370696,4441.235652,-72012.976812
2262.348389,-1036.288319,-7402.059420,-73545.167808
2262.350961,-740.205942,-17024.736666,-74464.482406
2262.353533,-444.123565,-10066.800811,-69714.690318
2262.356104,0.000000,-1628.453072,-72932.291410
2262.358676,148.041188,0.000000,-78294.959896
2262.361248,1036.288319,3108.864956,-75077.358804
2262.363819,2072.576638,4885.359217,-70174.347617
2262.366391,444.123565,3256.906145,-70327.566716
2262.368962,-592.164754,-7105.977043,-76303.111601
2262.371534,-740.205942,-5921.647536,-73851.606007
2262.374105,1924.535449,-3701.029710,-72625.853210
2262.376676,1332.370696,-2664.741391,-75077.358804
2262.379247,0.000000,-9474.636058,-75537.016103
2262.381817,2812.782580,-888.247130,-71859.757712
2262.384388,-1776.494261,3256.906145,-71093.662214
2262.386959,-592.164754,-4441.235652,-74311.263306
2262.389530,444.123565,-3404.947333,-76762.768900
2262.392101,-1184.329507,-9030.512492,-76915.987999
2262.394672,740.205942,-740.205942,-71706.538613
2262.397243,1036.288319,-8142.265362,-72472.634111
2262.399813,2072.576638,888.247130,-72472.634111
2262.402384,-2072.576638,-4293.194464,-75230.577904
2262.404955,-444.123565,-2220.617826,-74617.701505
2262.407526,-1036.288319,-4885.359217,-73085.510509
2262.410097,1776.494261,888.247130,-73545.167808
2262.412668,592.164754,1332.370696,-75077.358804
2262.415238,1184.329507,5181.441594,-72779.072310
2262.417809,740.205942,12583.501014,-71400.100414
2262.420380,-2516.700203,10807.006753,-76149.892501
2262.422951,-148.041188,8290.306550,-77222.426198
2262.425522,1332.370696,6809.894666,-73238.729609
2262.428093,740.205942,3997.112087,-70480.785816
2262.430663,1036.288319,-2072.576638,-72166.195912
2262.433234,592.164754,-2516.700203,-74924.139704
2262.435805,1184.329507,4737.318029,-73851.606007
2262.438376,740.205942,6217.729913,-74311.263306
2262.440947,1036.288319,2368.659014,-75843.454302
2262.443518,2220.617826,13619.789333,-70174.347617
2262.446088,592.164754,2220.617826,-71246.881314
2262.448659,296.082377,-296.082377,-73851.606007
2262.451230,2368.659014,3404.947333,-75077.358804
2262.453801,444.123565,9474.636058,-76915.987999
2262.456372,444.123565,6069.688724,-76149.892501
2262.458943,-888.247130,7550.100608,-68795.375720
2262.461513,-592.164754,3256.906145,-72472.634111
2262.464084,888.247130,9474.636058,-71706.538613
2262.466655,1480.411884,9770.718434,-74770.920605
2262.469226,296.082377,6069.688724,-73698.386908
2262.471797,-148.041188,148.041188,-74311.263306
2262.474368,-1184.329507,3108.864956,-72932.291410
2262.476938,0.000000,5477.523971,-72932.291410
2262.479508,-296.082377,2220.617826,-71553.319513
2262.482078,-296.082377,-2220.617826,-75996.673402
2262.484649,888.247130,2072.576638,-74004.825107
2262.487219,888.247130,-4885.359217,-74004.825107
2262.489789,2368.659014,-15544.324782,-71246.881314
2262.492359,-1776.494261,-9178.553681,-70787.224015
2262.494929,-592.164754,-5477.523971,-77682.083497
2262.497500,2516.700203,3701.029710,-76149.892501
2262.500070,1776.494261,7402.059420,-72932.291410
2262.502640,1480.411884,148.041188,-72012.976812
2262.505210,1036.288319,-2664.741391,-71093.662214
2262.507780,-148.041188,-2664.741391,-72932.291410
2262.510351,-1776.494261,-888.247130,-75230.577904
2262.512921,-1036.288319,-17024.736666,-78754.617194
2262.515491,2664.741391,-6069.688724,-72625.853210
2262.518061,740.205942,8586.388927,-70021.128517
2262.520632,-888.247130,-12879.583391,-75077.358804
2262.523202,-592.164754,1480.411884,-70480.785816
2262.525772,-444.123565,-5329.482782,-74924.139704
2262.528342,-148.041188,444.123565,-76456.330700
2262.530912,-148.041188,-11991.336260,-79214.274493
2262.533483,-444.123565,-2220.617826,-68335.718422
2262.536053,1776.494261,-740.205942,-69101.813920
2262.538623,-296.082377,-5773.606348,-75843.454302
2262.541193,-296.082377,-2368.659014,-74158.044206
2262.543764,-1036.288319,-4885.359217,-71859.757712
2262.546334,-888.247130,3404.947333,-74617.701505
2262.548904,592.164754,-1036.288319,-75690.235202
2262.551474,2368.659014,5773.606348,-70327.566716
2262.554044,444.123565,12435.459826,-70480.785816
2262.556615,1480.411884,7994.224174,-76609.549800
2262.559183,740.205942,12435.459826,-77528.864398
2262.561751,-296.082377,8882.471304,-73085.510509
2262.564320,444.123565,1184.329507,-71246.881314
2262.566888,592.164754,-4441.235652,-73085.510509
2262.569456,1776.494261,0.000000,-72625.853210
2262.572024,1184.329507,4737.318029,-74311.263306
2262.574593,888.247130,6365.771101,-76149.892501
2262.577161,1184.329507,4293.194464,-74158.044206
2262.579729,-296.082377,14211.954086,-69561.471218
2262.582297,-1776.494261,-1776.494261,-74464.482406
2262.584866,-1480.411884,-3108.864956,-72779.072310
2262.587434,740.205942,6217.729913,-75077.358804
2262.590002,2072.576638,9326.594869,-79061.055394
2262.592571,-444.123565,3256.906145,-75383.797003
2262.595139,1184.329507,8290.306550,-67263.184724
2262.597707,-1184.329507,5625.565159,-68795.375720
2262.600275,-2664.741391,5773.606348,-76609.549800
2262.602844,148.041188,5921.647536,-79061.055394
2262.605412,1776.494261,11695.253884,-72319.415011
2262.607980,1628.453072,5033.400406,-74158.044206
2262.610548,296.082377,1184.329507,-72932.291410
2262.613117,-592.164754,-1184.329507,-70787.224015
2262.615685,296.082377,3997.112087,-71553.319513
2262.618253,-148.041188,0.000000,-77835.302597
2262.620822,0.000000,-2960.823768,-77528.864398
2262.623390,2812.782580,-7698.141797,-72472.634111
2262.625958,2072.576638,-15248.242405,-69561.471218
2262.628526,1036.288319,-9770.718434,-71553.319513
2262.631095,148.041188,-4589.276840,-75230.577904
2262.633663,-592.164754,3552.988522,-77069.207099
2262.636231,-296.082377,2516.700203,-73851.606007
2262.638800,1628.453072,-148.041188,-71400.100414
2262.641368,740.205942,-3256.906145,-69561.471218
2262.643936,148.041188,-7698.141797,-75230.577904
2262.646504,-148.041188,1184.329507,-75996.673402
2262.649073,-592.164754,-2516.700203,-75230.577904
2262.651641,-740.205942,-7994.224174,-73698.386908
2262.654209,0.000000,3404.947333,-71553.319513
2262.656777,-1184.329507,-17320.819043,-74617.701505
2262.659346,1628.453072,1628.453072,-69714.690318
2262.661913,592.164754,-2072.576638,-76149.892501
2262.664480,-148.041188,-6217.729913,-81512.560987
2262.667047,592.164754,-3552.988522,-71859.757712
2262.669614,444.123565,-5625.565159,-69408.252119
2262.672180,-1036.288319,-2960.823768,-70634.004916
2262.674747,148.041188,-11399.171507,-76762.768900
2262.677314,2368.659014,2220.617826,-72932.291410
2262.679881,444.123565,1776.494261,-73391.948708
2262.682448,-148.041188,-444.123565,-77069.207099
2262.685015,-296.082377,888.247130,-72779.072310
2262.687582,592.164754,9474.636058,-67109.965625
2262.690149,148.041188,8734.430116,-73085.510509
2262.692716,1776.494261,15544.324782,-77835.302597
2262.695283,148.041188,4441.235652,-76915.987999
2262.697850,3108.864956,11547.212695,-71400.100414
2262.700417,0.000000,-3701.029710,-71553.319513
2262.702984,-148.041188,-4441.235652,-72166.195912
2262.705551,1184.329507,6661.853478,-73698.386908
2262.708118,296.082377,5181.441594,-76915.987999
2262.710685,2072.576638,2960.823768,-77222.426198
2262.713252,1776.494261,10955.047942,-70174.347617
2262.715819,296.082377,11843.295072,-70327.566716
2262.718386,-2072.576638,-16284.530724,-75383.797003
2262.720953,2072.576638,21614.013506,-71246.881314
2262.723519,-2516.700203,-3404.947333,-78754.617194
2262.726086,1628.453072,19837.519246,-72779.072310
2262.728653,-1332.370696,-5181.441594,-72012.976812
2262.731220,0.000000,6513.812290,-70634.004916
2262.733787,-444.123565,7846.182985,-70021.128517
2262.736354,148.041188,1480.411884,-80593.246390
2262.738921,1332.370696,15248.242405,-74311.263306
2262.741488,-296.082377,6513.812290,-73851.606007
2262.744055,296.082377,4293.194464,-71706.538613
2262.746622,296.082377,-6365.771101,-71246.881314
2262.749189,4441.235652,4589.276840,-71553.319513
2262.751756,-148.041188,-1924.535449,-75230.577904
2262.754323,-148.041188,-3256.906145,-78601.398095
2262.756890,-592.164754,-12435.459826,-75077.358804
2262.759457,2072.576638,-9030.512492,-66190.651027
2262.762024,888.247130,-11399.171507,-70174.347617
2262.764590,1480.411884,-4589.276840,-77988.521696
2262.767156,1184.329507,5033.400406,-77375.645298
2262.769722,-444.123565,7550.100608,-74924.139704
2262.772288,1480.411884,1036.288319,-71706.538613
2262.774854,0.000000,-6809.894666,-71400.100414
2262.777420,740.205942,-2072.576638,-70021.128517
2262.779986,592.164754,-10510.924376,-77222.426198
2262.782552,3997.112087,2960.823768,-75077.358804
2262.785118,-1184.329507,-3108.864956,-76303.111601
2262.787684,1036.288319,296.082377,-71553.319513
2262.790250,-3108.864956,-13175.665768,-71553.319513
2262.792816,592.164754,-3997.112087,-69255.033019
2262.795382,296.082377,2072.576638,-74004.825107
2262.797948,-148.041188,-3701.029710,-81512.560987
2262.800514,1036.288319,-2664.741391,-73545.167808
2262.803080,-1776.494261,-12139.377449,-69867.909418
2262.805646,-592.164754,-5033.400406,-70327.566716
2262.808212,-740.205942,-10807.006753,-75537.016103
2262.810778,296.082377,1332.370696,-74311.263306
2262.813344,296.082377,7105.977043,-75843.454302
2262.815910,740.205942,5329.482782,-75230.577904
2262.818476,888.247130,-1924.535449,-72779.072310
2262.821042,1776.494261,9474.636058,-66803.527426
2262.823608,-296.082377,8438.347739,-74004.825107
2262.826174,-740.205942,13619.789333,-80286.808190
2262.828740,1036.288319,9622.677246,-75537.016103
2262.831306,1628.453072,3256.906145,-68948.594820
2262.833872,1776.494261,-6069.688724,-70174.347617
2262.836438,1628.453072,-3256.906145,-73238.729609
2262.839004,-888.247130,6513.812290,-74770.920605
2262.841570,296.082377,10658.965565,-77528.864398
2262.844136,-148.041188,11991.336260,-77222.426198
2262.846702,-888.247130,444.123565,-71706.538613
2262.849268,1332.370696,1184.329507,-68795.375720
2262.851834,1628.453072,-148.041188,-75230.577904
2262.854400,1332.370696,4589.276840,-77222.426198
2262.856966,1924.535449,18949.272115,-74158.044206
2262.859532,-1184.329507,148.041188,-77528.864398
2262.862098,-888.247130,5921.647536,-71246.881314
2262.864664,-2368.659014,-1924.535449,-68795.375720
2262.867186,1332.370696,11251.130318,-70021.128517
2262.869708,592.164754,7402.059420,-79214.274493
2262.872230,1924.535449,12879.583391,-75230.577904
2262.874752,-1924.535449,4293.194464,-71859.757712
2262.877274,-592.164754,-4737.318029,-70940.443115
2262.879796,-444.123565,-3108.864956,-71246.881314
2262.882318,-148.041188,-5329.482782,-73851.606007
2262.884840,2072.576638,3256.906145,-77222.426198
2262.887362,740.205942,-2072.576638,-77835.302597
2262.889884,1776.494261,-16580.613101,-72166.195912
2262.892406,-592.164754,-10510.924376,-66343.870127
2262.894928,296.082377,-7402.059420,-75843.454302
2262.897450,-148.041188,4885.359217,-79673.931792
2262.899972,888.247130,6217.729913,-76609.549800
2262.902494,3256.906145,5773.606348,-70634.004916
2262.905016,1184.329507,-9770.718434,-71246.881314
2262.907538,740.205942,-7994.224174,-69867.909418
2262.910059,-148.041188,-11399.171507,-74158.044206
2262.912581,-1776.494261,2368.659014,-79673.931792
2262.915103,740.205942,-2368.659014,-78448.178995
2262.917625,2368.659014,-3256.906145,-70021.128517
2262.920147,1480.411884,-4293.194464,-65424.555529
2262.922669,-740.205942,-8882.471304,-73851.606007
2262.925191,-1184.329507,-3552.988522,-80593.246390
2262.927713,1776.494261,1332.370696,-77222.426198
2262.930235,-296.082377,3256.906145,-72012.976812
2262.932757,1184.329507,-15100.201217,-71706.538613
2262.935279,2072.576638,-13471.748144,-68488.937521
2262.937801,0.000000,-2220.617826,-71400.100414
2262.940323,888.247130,2960.823768,-78294.959896
2262.942845,740.205942,6365.771101,-80440.027290
2262.945367,1480.411884,5181.441594,-72932.291410
2262.947889,740.205942,2516.700203,-66343.870127
2262.950411,1036.288319,4293.194464,-68029.280222
2262.952933,2072.576638,14804.118840,-75077.358804
2262.955455,-2664.741391,12287.418637,-81206.122788
2262.957977,1628.453072,11103.089130,-77069.207099
2262.960499,592.164754,-2960.823768,-71400.100414
2262.963021,1184.329507,-6365.771101,-66803.527426
2262.965543,-740.205942,-4293.194464,-72012.976812
2262.968073,1480.411884,7550.100608,-77528.864398
2262.970604,1924.535449,15248.242405,-78754.617194
2262.973135,-888.247130,12139.377449,-74924.139704
2262.975665,-2812.782580,-8882.471304,-73238.729609
2262.978196,1036.288319,-2960.823768,-66650.308326
2262.980727,-296.082377,13619.789333,-68948.594820
2262.983257,-296.082377,11251.130318,-79673.931792
2262.985788,1776.494261,6365.771101,-83044.751983
2262.988319,2220.617826,5625.565159,-71859.757712
2262.990849,-2072.576638,3849.070898,-66497.089226
2262.993380,-592.164754,296.082377,-71706.538613
2262.995911,1332.370696,9770.718434,-77222.426198
2262.998441,888.247130,15544.324782,-76915.987999
2263.000972,-296.082377,13323.706956,-76609.549800
2263.003503,1924.535449,-5477.523971,-72012.976812
2263.006033,1332.370696,-6365.771101,-67416.403824
2263.008564,444.123565,-9178.553681,-70021.128517
2263.011095,0.000000,1776.494261,-77682.083497
2263.013625,0.000000,-2960.823768,-82278.656485
2263.016156,1184.329507,-8586.388927,-71246.881314
2263.018687,1480.411884,-11547.212695,-65730.993728
2263.021217,-148.041188,-14063.912898,-72472.634111
2263.023748,296.082377,4589.276840,-74770.920605
2263.026279,-444.123565,8290.306550,-79061.055394
2263.028809,0.000000,7994.224174,-77682.083497
2263.031340,-1776.494261,-9326.594869,-72012.976812
2263.033871,1628.453072,-5921.647536,-66497.089226
2263.036401,-148.041188,-2516.700203,-69255.033019
2263.038932,-296.082377,-14359.995275,-83504.409282
2263.041463,1184.329507,-592.164754,-78754.617194
2263.043993,1036.288319,8290.306550,-69867.909418
2263.046524,-1776.494261,-18209.066173,-67876.061123
2263.049055,1924.535449,-3404.947333,-70021.128517
2263.051585,-2516.700203,-13767.830521,-76303.111601
2263.054116,2812.782580,11547.212695,-77375.645298
2263.056647,2812.782580,-3404.947333,-77528.864398
2263.059177,296.082377,-2960.823768,-71706.538613
2263.061708,148.041188,-15840.407159,-66956.746525
2263.064239,-740.205942,-8586.388927,-72319.415011
2263.066769,444.123565,2812.782580,-76149.892501
2263.069266,1480.411884,11843.295072,-80440.027290
2263.071762,4885.359217,9326.594869,-76149.892501
2263.074258,740.205942,3552.988522,-68948.594820
2263.076755,1924.535449,4145.153275,-65730.993728
2263.079251,-1924.535449,10658.965565,-73698.386908
2263.081747,-888.247130,8438.347739,-81052.903688
2263.084244,888.247130,14063.912898,-77528.864398
2263.086740,888.247130,2220.617826,-68642.156621
2263.089236,2072.576638,-7846.182985,-70327.566716
2263.091733,-592.164754,-5773.606348,-70634.004916
2263.094229,-592.164754,8142.265362,-76303.111601
2263.096725,-1184.329507,9326.594869,-79367.493593
2263.099222,-592.164754,14656.077652,-77375.645298
2263.101718,444.123565,-2516.700203,-70787.224015
2263.104214,740.205942,-1184.329507,-65577.774629
2263.106711,1332.370696,9474.636058,-71246.881314
2263.109207,-1184.329507,-444.123565,-85955.914876
2263.111703,296.082377,18801.230927,-75690.235202
2263.114199,-740.205942,3849.070898,-72625.853210
2263.116696,1184.329507,6513.812290,-65424.555529
2263.119192,-296.082377,-4441.235652,-72012.976812
2263.121688,1480.411884,14211.954086,-72779.072310
2263.124185,888.247130,12583.501014,-79214.274493
2263.126681,1036.288319,12139.377449,-77835.302597
2263.129177,444.123565,-7402.059420,-72166.195912
2263.131674,-1332.370696,-16728.654289,-67569.622924
2263.134170,296.082377,-1184.329507,-72472.634111
2263.136666,-148.041188,-3701.029710,-79367.493593
2263.139163,2812.782580,-1776.494261,-78294.959896
2263.141659,1776.494261,-8438.347739,-72166.195912
2263.144155,1924.535449,-10510.924376,-68488.937521
2263.146652,-1628.453072,-7105.977043,-70940.443115
2263.149148,-1036.288319,1628.453072,-74924.139704
2263.151644,-2368.659014,6957.935855,-77682.083497
2263.154141,148.041188,-296.082377,-76303.111601
2263.156637,2072.576638,-5625.565159,-70787.224015
2263.159133,888.247130,-1480.411884,-67109.965625
2263.161630,1184.329507,-12287.418637,-75537.016103
2263.164126,-1480.411884,5181.441594,-74464.482406
2263.166622,-148.041188,-4737.318029,-79367.493593
2263.169134,-444.123565,-1036.288319,-73545.167808
2263.171645,740.205942,-9622.677246,-67569.622924
2263.174156,1924.535449,-5477.523971,-68335.718422
2263.176668,296.082377,-10807.006753,-80286.808190
2263.179179,1036.288319,592.164754,-78294.959896
2263.181690,-888.247130,3404.947333,-72166.195912
2263.184202,-148.041188,-12435.459826,-71859.757712
2263.186713,-296.082377,-15988.448347,-71246.881314
2263.189224,1480.411884,-1184.329507,-70480.785816
2263.191736,2664.741391,11251.130318,-75230.577904
2263.194247,740.205942,12879.583391,-80440.027290
2263.196758,1332.370696,3552.988522,-75077.358804
2263.199270,0.000000,11251.130318,-65424.555529
2263.201781,-296.082377,9326.594869,-72012.976812
2263.204292,0.000000,4293.194464,-78601.398095
2263.206804,1924.535449,13175.665768,-75996.673402
2263.209315,2516.700203,4441.235652,-74617.701505
2263.211826,148.041188,-1036.288319,-72012.976812
2263.214338,444.123565,-6365.771101,-70480.785816
2263.216849,148.041188,8142.265362,-68642.156621
2263.219360,-740.205942,11547.212695,-77988.521696
2263.221872,-1332.370696,4145.153275,-80899.684589
2263.224383,888.247130,-1776.494261,-72012.976812
2263.226894,1184.329507,5181.441594,-66190.651027
2263.229406,-740.205942,5773.606348,-73851.606007
2263.231917,-148.041188,-1628.453072,-80746.465489
2263.234428,-1776.494261,18061.024985,-73698.386908
2263.236940,-1480.411884,11991.336260,-71553.319513
2263.239451,3108.864956,4737.318029,-73391.948708
2263.241962,1036.288319,-740.205942,-70940.443115
2263.244474,2220.617826,12879.583391,-70940.443115
2263.246985,888.247130,10214.842000,-76762.768900
2263.249496,444.123565,2072.576638,-76149.892501
2263.252008,444.123565,1924.535449,-68488.937521
2263.254519,-148.041188,-14359.995275,-70787.224015
2263.257030,1332.370696,-3997.112087,-74004.825107
2263.259542,1036.288319,-4293.194464,-76609.549800
2263.262053,740.205942,-2960.823768,-73391.948708
2263.264564,-296.082377,-7402.059420,-73238.729609
2263.267076,888.247130,-10510.924376,-73085.510509
2263.269599,-888.247130,-2664.741391,-71400.100414
2263.272123,592.164754,3404.947333,-73085.510509
2263.274647,2368.659014,1332.370696,-76762.768900
2263.277171,1036.288319,-148.041188,-74770.920605
2263.279695,1628.453072,3404.947333,-70634.004916
2263.282219,-1184.329507,-16284.530724,-74311.263306
2263.284743,1332.370696,-2220.617826,-73851.606007
2263.287267,-1184.329507,8882.471304,-72625.853210
2263.289791,-1184.329507,-8586.388927,-77375.645298
2263.292315,1332.370696,-2664.741391,-72319.415011
2263.294839,-1924.535449,-13323.706956,-73085.510509
2263.297363,888.247130,-4441.235652,-72319.415011
2263.299887,-1184.329507,-2072.576638,-77988.521696
2263.302410,0.000000,-5329.482782,-75077.358804
2263.304934,740.205942,-3108.864956,-70634.004916
2263.307458,-148.041188,-8586.388927,-71400.100414
2263.309982,1036.288319,-8734.430116,-71246.881314
2263.312506,2072.576638,6365.771101,-74464.482406
2263.315030,1036.288319,11991.336260,-77835.302597
2263.317554,-444.123565,3849.070898,-74464.482406
2263.320078,2220.617826,11399.171507,-68029.280222
2263.322602,2960.823768,9474.636058,-71246.881314
2263.325126,444.123565,4145.153275,-77375.645298
2263.327650,1924.535449,8882.471304,-76149.892501
2263.330174,-740.205942,3849.070898,-73851.606007
2263.332698,-1184.329507,-1480.411884,-72166.195912
2263.335222,-2072.576638,-4145.153275,-73851.606007
2263.337746,444.123565,6217.729913,-70634.004916
2263.340270,296.082377,8438.347739,-73851.606007
2263.342794,888.247130,19097.313304,-74311.263306
2263.345318,-740.205942,-2516.700203,-73851.606007
2263.347842,0.000000,8586.388927,-68488.937521
2263.350366,-2072.576638,-4737.318029,-75537.016103
2263.352890,0.000000,12583.501014,-75077.358804
2263.355414,1036.288319,7402.059420,-76303.111601
2263.357937,3701.029710,14952.160028,-70940.443115
2263.360461,1184.329507,4145.153275,-72472.634111
2263.362985,740.205942,1184.329507,-74158.044206
2263.365509,0.000000,8290.306550,-73545.167808
2263.368033,148.041188,11991.336260,-75537.016103
2263.370568,888.247130,592.164754,-75996.673402
2263.373102,1628.453072,-7402.059420,-70940.443115
2263.375637,1332.370696,-3849.070898,-69255.033019
2263.378171,-592.164754,-9030.512492,-75230.577904
2263.380706,1628.453072,-5477.523971,-76609.549800
2263.383240,-740.205942,-8734.430116,-74617.701505
2263.385775,-1776.494261,-296.082377,-70327.566716
2263.388309,-444.123565,-10066.800811,-75077.358804
2263.390844,1776.494261,-148.041188,-72932.291410
2263.393378,1628.453072,5033.400406,-72472.634111
2263.395913,1332.370696,1184.329507,-76149.892501
2263.398447,0.000000,-2368.659014,-74311.263306
2263.400982,-1332.370696,-11991.336260,-72932.291410
2263.403516,-592.164754,1036.288319,-69101.813920
2263.406051,-592.164754,-296.082377,-75843.454302
2263.408585,296.082377,1036.288319,-76149.892501
2263.411120,2072.576638,-6217.729913,-72932.291410
2263.413654,888.247130,-7254.018232,-71553.319513
2263.416189,740.205942,-10955.047942,-74311.263306
2263.418723,-592.164754,-5033.400406,-73698.386908
2263.421258,0.000000,-2368.659014,-73851.606007
2263.423792,-444.123565,-6957.935855,-74924.139704
2263.426327,2072.576638,-11399.171507,-73085.510509
2263.428861,1628.453072,-3256.906145,-69561.471218
2263.431396,1332.370696,2812.782580,-73085.510509
2263.433930,-148.041188,4145.153275,-78601.398095
2263.436465,148.041188,10510.924376,-73698.386908
2263.438999,148.041188,12139.377449,-68948.594820
2263.441534,296.082377,3108.864956,-71859.757712
2263.444068,2664.741391,6661.853478,-75077.358804
2263.446603,-888.247130,9178.553681,-74770.920605
2263.449137,1184.329507,7550.100608,-74004.825107
2263.451672,1036.288319,3701.029710,-72625.853210
2263.454206,-1628.453072,-5773.606348,-74004.825107
2263.456741,-1480.411884,2960.823768,-70634.004916
2263.459275,-1332.370696,6661.853478,-74004.825107
2263.461810,1036.288319,17024.736666,-74924.139704
2263.464344,-1628.453072,1184.329507,-76609.549800
2263.466879,-888.247130,-6809.894666,-72779.072310
2263.469413,1036.288319,11695.253884,-68795.375720
2263.471956,-1184.329507,3997.112087,-74311.263306
2263.474498,444.123565,9326.594869,-78294.959896
2263.477040,-1480.411884,10362.883188,-73851.606007
2263.479583,2072.576638,11695.253884,-70327.566716
2263.482125,1480.411884,1776.494261,-72625.853210
2263.484667,-592.164754,7846.182985,-75077.358804
2263.487209,-592.164754,9474.636058,-74617.701505
2263.489752,-444.123565,3552.988522,-74617.701505
2263.492294,296.082377,-2516.700203,-72319.415011
2263.494836,1480.411884,-14508.036463,-71859.757712
2263.497379,2072.576638,-2516.700203,-70634.004916
2263.499921,296.082377,-3701.029710,-77528.864398
2263.502463,296.082377,-8438.347739,-76149.892501
2263.505005,-888.247130,-5625.565159,-71706.538613
2263.507548,-1036.288319,-4737.318029,-70327.566716
2263.510090,-444.123565,-3108.864956,-73698.386908
2263.512632,2072.576638,888.247130,-73851.606007
2263.515175,1628.453072,1924.535449,-74311.263306
2263.517717,-888.247130,1184.329507,-74311.263306
2263.520259,888.247130,3997.112087,-72779.072310
2263.522801,-1480.411884,-18949.272115,-73851.606007
2263.525344,2072.576638,3552.988522,-70634.004916
2263.527886,-2664.741391,-6513.812290,-76456.330700
2263.530428,1924.535449,5477.523971,-73085.510509
2263.532971,-740.205942,-5477.523971,-69867.909418
2263.535513,-444.123565,-7550.100608,-72166.195912
2263.538055,-592.164754,-5477.523971,-75843.454302
2263.540597,-888.247130,-9622.677246,-78141.740796
2263.543140,1924.535449,3701.029710,-69255.033019
2263.545682,-444.123565,-9622.677246,-73851.606007
2263.548224,1184.329507,-11399.171507,-72932.291410
2263.550767,1332.370696,2516.700203,-72012.976812
2263.553309,2072.576638,11695.253884,-75690.235202
2263.555851,-2812.782580,6217.729913,-77835.302597
2263.558393,1332.370696,12583.501014,-69255.033019
2263.560936,1184.329507,7698.141797,-70021.128517
2263.563478,1628.453072,7402.059420,-73698.386908
2263.566020,888.247130,740.205942,-78294.959896
2263.568563,592.164754,11991.336260,-72319.415011
2263.571105,740.205942,3849.070898,-73238.729609
2263.573654,0.000000,-4885.359217,-75996.673402
2263.576202,0.000000,3108.864956,-72012.976812
2263.578751,1924.535449,15988.448347,-70480.785816
2263.581300,-444.123565,-1184.329507,-78141.740796
2263.583848,1628.453072,-2516.700203,-75537.016103
2263.586397,296.082377,9030.512492,-67569.622924
2263.588946,-148.041188,6069.688724,-72012.976812
2263.591495,-444.123565,2220.617826,-80593.246390
2263.594043,-1036.288319,10214.842000,-74924.139704
2263.596592,-296.082377,13767.830521,-68335.718422
2263.599141,148.041188,11695.253884,-72012.976812
2263.601690,1924.535449,2072.576638,-75996.673402
2263.604238,-148.041188,8882.471304,-72012.976812
2263.606787,-740.205942,9326.594869,-74617.701505
2263.609336,-1776.494261,-5033.400406,-75843.454302
2263.611884,1332.370696,-6513.812290,-70787.224015
2263.614433,-592.164754,-1924.535449,-68948.594820
2263.616982,296.082377,-9622.677246,-76915.987999
2263.619531,2664.741391,-7105.977043,-77222.426198
2263.622079,1480.411884,-5477.523971,-71400.100414
2263.624628,-740.205942,-2516.700203,-69714.690318
2263.627177,-3108.864956,-8438.347739,-77528.864398
2263.629726,-296.082377,-1184.329507,-74158.044206
2263.632274,2812.782580,8882.471304,-70021.128517
2263.634823,1184.329507,-3404.947333,-75690.235202
2263.637372,2220.617826,-2072.576638,-74004.825107
2263.639920,148.041188,-10362.883188,-71859.757712
2263.642469,1776.494261,1480.411884,-71553.319513
2263.645018,-296.082377,3997.112087,-76762.768900
2263.647567,-1332.370696,-10658.965565,-77069.207099
2263.650115,0.000000,3404.947333,-68488.937521
2263.652664,1776.494261,-13027.624579,-73545.167808
2263.655213,148.041188,-8586.388927,-74617.701505
2263.657762,1480.411884,-4737.318029,-76915.987999
2263.660310,-2220.617826,0.000000,-73085.510509
2263.662859,-2368.659014,-14804.118840,-75383.797003
2263.665408,1184.329507,-6957.935855,-70480.785816
2263.667956,1036.288319,2368.659014,-69255.033019
2263.670505,740.205942,7550.100608,-76303.111601
2263.673054,1184.329507,11399.171507,-77528.864398
2263.675608,-1036.288319,12583.501014,-69561.471218
2263.678163,-444.123565,7698.141797,-70327.566716
2263.680717,-1184.329507,2664.741391,-75383.797003
2263.683272,1184.329507,5033.400406,-75383.797003
2263.685826,592.164754,12731.542202,-71093.662214
2263.688381,1184.329507,1332.370696,-74464.482406
2263.690935,4441.235652,-2368.659014,-75383.797003
2263.693490,-148.041188,2812.782580,-70480.785816
2263.696044,-740.205942,7698.141797,-72472.634111
2263.698599,444.123565,14804.118840,-74924.139704
2263.701153,296.082377,3849.070898,-76149.892501
2263.703708,1628.453072,888.247130,-72779.072310
2263.706262,2368.659014,1332.370696,-70787.224015
2263.708817,1924.535449,9918.759623,-70787.224015
2263.711371,1184.329507,6809.894666,-77069.207099
2263.713926,-740.205942,11991.336260,-75077.358804
2263.716480,-3997.112087,7105.977043,-74617.701505
2263.719035,1628.453072,10066.800811,-72166.195912
2263.721589,2664.741391,9326.594869,-73238.729609
2263.724144,1924.535449,8290.306550,-72166.195912
2263.726698,-148.041188,-4589.276840,-75843.454302
2263.729253,296.082377,-7846.182985,-72932.291410
2263.731807,-444.123565,-2960.823768,-72319.415011
2263.734362,-1924.535449,-10658.965565,-75537.016103
2263.736916,1480.411884,-8734.430116,-75690.235202
2263.739471,2368.659014,-1628.453072,-69561.471218
2263.742025,1924.535449,-4885.359217,-73698.386908
2263.744580,-1036.288319,-4293.194464,-74924.139704
2263.747134,444.123565,-1628.453072,-75077.358804
2263.749689,1184.329507,5625.565159,-72012.976812
2263.752243,296.082377,-4145.153275,-74004.825107
2263.754798,1924.535449,-11695.253884,-75996.673402
2263.757318,-148.041188,-7994.224174,-71246.881314
2263.759839,2664.741391,11251.130318,-71400.100414
2263.762360,-2516.700203,-5477.523971,-76762.768900
2263.764881,148.041188,-6217.729913,-73698.386908
2263.767402,-2664.741391,-8734.430116,-73545.167808
2263.769923,-1184.329507,-11103.089130,-72319.415011
2263.772443,4441.235652,4737.318029,-71093.662214
2263.774964,-888.247130,-6513.812290,-75230.577904
2263.777485,-1036.288319,-9326.594869,-74158.044206
2263.780006,-148.041188,-13175.665768,-72319.415011
2263.782527,-296.082377,3849.070898,-70634.004916
2263.785048,-2368.659014,3108.864956,-75383.797003
2263.787568,1480.411884,10955.047942,-77375.645298
2263.790089,1332.370696,10807.006753,-72472.634111
2263.792610,2960.823768,13619.789333,-68795.375720
2263.795131,1036.288319,1480.411884,-74617.701505
2263.797652,-740.205942,-296.082377,-77528.864398
2263.800173,1036.288319,13323.706956,-72625.853210
2263.802693,-1776.494261,1776.494261,-75077.358804
2263.805214,2368.659014,592.164754,-72625.853210
2263.807735,0.000000,-1036.288319,-72166.195912
2263.810256,1332.370696,4737.318029,-72166.195912
2263.812777,740.205942,14804.118840,-74158.044206
2263.815298,-148.041188,444.123565,-79214.274493
2263.817818,1036.288319,3552.988522,-70174.347617
2263.820339,592.164754,8882.471304,-70480.785816
2263.822860,1628.453072,-4737.318029,-78907.836294
2263.825381,2664.741391,15100.201217,-74158.044206
2263.827902,888.247130,13767.830521,-71400.100414
2263.830423,-592.164754,11103.089130,-74158.044206
2263.832943,-740.205942,1332.370696,-74924.139704
2263.835464,0.000000,15100.201217,-72932.291410
2263.837985,-1332.370696,7698.141797,-72472.634111
2263.840506,1036.288319,-2516.700203,-75843.454302
2263.843027,1036.288319,-6217.729913,-70940.443115
2263.845548,444.123565,-4293.194464,-71246.881314
2263.848068,-740.205942,-9326.594869,-76609.549800
2263.850589,-444.123565,-7550.100608,-77375.645298
2263.853110,296.082377,-3404.947333,-69714.690318
2263.855631,-1332.370696,-6069.688724,-72625.853210
2263.858163,1628.453072,-2220.617826,-74464.482406
2263.860695,1036.288319,-4737.318029,-75843.454302
2263.863227,2368.659014,7698.141797,-71093.662214
2263.865759,-1332.370696,-5773.606348,-75996.673402
2263.868291,-444.123565,2072.576638,-71246.881314
2263.870824,148.041188,-3849.070898,-70787.224015
2263.873356,148.041188,-7698.141797,-75383.797003
2263.875888,3997.112087,3849.070898,-75383.797003
2263.878420,-148.041188,-5773.606348,-73391.948708
2263.880952,2072.576638,-2220.617826,-69867.909418
2263.883484,740.205942,-10510.924376,-73851.606007
2263.886016,-1480.411884,-12435.459826,-77069.207099
2263.888548,1184.329507,296.082377,-72932.291410
2263.891080,1924.535449,-10658.965565,-73085.510509
2263.893612,1776.494261,-6661.853478,-71706.538613
2263.896144,444.123565,-10066.800811,-73391.948708
2263.898676,1184.329507,15840.407159,-72472.634111
2263.901209,-888.247130,9178.553681,-78448.178995
2263.903741,-296.082377,7402.059420,-75843.454302
2263.906273,592.164754,11103.089130,-69255.033019
2263.908805,-296.082377,11843.295072,-69714.690318
2263.911337,-1332.370696,-1036.288319,-77988.521696
2263.913869,1480.411884,5921.647536,-75383.797003
2263.916401,-740.205942,5773.606348,-73391.948708
2263.918933,-1924.535449,592.164754,-74158.044206
2263.921465,148.041188,-1332.370696,-73085.510509
2263.923997,0.000000,12731.542202,-70021.128517
2263.926529,-888.247130,-296.082377,-74924.139704
2263.929062,3404.947333,5625.565159,-75230.577904
2263.931594,1776.494261,6069.688724,-73085.510509
2263.934126,740.205942,-296.082377,-73085.510509
2263.936658,2368.659014,16284.530724,-72012.976812
2263.939190,-1332.370696,2516.700203,-78601.398095
2263.941722,740.205942,12287.418637,-70940.443115
2263.944254,1776.494261,11399.171507,-71859.757712
2263.946786,1184.329507,11843.295072,-73391.948708
2263.949318,2812.782580,3256.906145,-75690.235202
2263.951850,1628.453072,10066.800811,-73238.729609
2263.954382,-1628.453072,-5181.441594,-74464.482406
2263.956915,-296.082377,-9474.636058,-74311.263306
2263.959456,2960.823768,-1184.329507,-72012.976812
2263.961998,-1184.329507,-8290.306550,-75230.577904
2263.964539,1924.535449,-9918.759623,-75230.577904
2263.967081,296.082377,-5773.606348,-70787.224015
2263.969623,888.247130,-3552.988522,-71859.757712
2263.972164,-2516.700203,-3256.906145,-76303.111601
2263.974706,1036.288319,-592.164754,-75230.577904
2263.977248,-148.041188,5329.482782,-71093.662214
2263.979789,-888.247130,-3849.070898,-73238.729609
2263.982331,296.082377,-11843.295072,-73085.510509
2263.984873,444.123565,296.082377,-72625.853210
2263.987414,148.041188,-592.164754,-76303.111601
2263.989956,-1036.288319,-5921.647536,-76762.768900
2263.992498,-444.123565,-3997.112087,-71246.881314
2263.995039,-1480.411884,-7994.224174,-68488.937521
2263.997581,-296.082377,-8438.347739,-76149.892501
2264.000122,1776.494261,-11547.212695,-76762.768900
2264.002664,3108.864956,592.164754,-71859.757712
2264.005206,592.164754,-10658.965565,-73238.729609
2264.007747,-1184.329507,-8142.265362,-74004.825107
2264.010289,-1184.329507,3997.112087,-72012.976812
2264.012831,592.164754,15100.201217,-75537.016103
2264.015372,-148.041188,9178.553681,-76762.768900
2264.017914,2516.700203,12435.459826,-71706.538613
2264.020456,1924.535449,5921.647536,-70174.347617
2264.022997,2220.617826,8142.265362,-73238.729609
2264.025539,-740.205942,2368.659014,-77682.083497
2264.028080,296.082377,5773.606348,-74464.482406
2264.030622,-444.123565,3997.112087,-71553.319513
2264.033164,148.041188,-888.247130,-74924.139704
2264.035705,1332.370696,5033.400406,-72319.415011
2264.038247,740.205942,13471.748144,-71553.319513
2264.040789,-296.082377,-444.123565,-78141.740796
2264.043330,-1184.329507,148.041188,-75537.016103
2264.045872,1036.288319,11103.089130,-69408.252119
2264.048414,0.000000,1776.494261,-72779.072310
2264.050955,1036.288319,11399.171507,-76456.330700
2264.053497,1036.288319,2960.823768,-75077.358804
2264.056039,1628.453072,14952.160028,-70021.128517
2264.058580,-148.041188,11991.336260,-74464.482406
2264.061130,-592.164754,6809.894666,-77835.302597
2264.063679,-592.164754,4737.318029,-71246.881314
2264.066229,1036.288319,-296.082377,-70940.443115
2264.068778,-1036.288319,-10066.800811,-72779.072310
2264.071328,2368.659014,-7698.141797,-73391.948708
2264.073877,592.164754,-7846.182985,-74311.263306
2264.076427,1332.370696,-3849.070898,-74617.701505
2264.078976,1184.329507,-4441.235652,-72319.415011
2264.081526,148.041188,-5033.400406,-70634.004916
2264.084076,1332.370696,-1332.370696,-73085.510509
2264.086625,1036.288319,-444.123565,-76609.549800
2264.089175,592.164754,-592.164754,-73391.948708
2264.091724,1924.535449,-4589.276840,-72932.291410
2264.094274,-444.123565,-3552.988522,-72625.853210
2264.096823,444.123565,-740.205942,-73391.948708
2264.099373,-1036.288319,4441.235652,-72319.415011
2264.101922,-888.247130,-6069.688724,-78448.178995
2264.104472,1480.411884,-7846.182985,-74158.044206
2264.107021,1776.494261,-7550.100608,-69101.813920
2264.109571,1480.411884,-5477.523971,-69714.690318
2264.112120,-740.205942,-9178.553681,-79673.931792
2264.114670,-1184.329507,-11399.171507,-76915.987999
2264.117219,0.000000,-3997.112087,-70634.004916
2264.119769,-148.041188,-7550.100608,-71246.881314
2264.122319,592.164754,2516.700203,-73391.948708
2264.124868,888.247130,5921.647536,-75383.797003
2264.127418,592.164754,15692.365970,-73545.167808
2264.129967,-740.205942,12435.459826,-72779.072310
2264.132517,-148.041188,6513.812290,-74617.701505
2264.135066,-444.123565,1776.494261,-73238.729609
2264.137616,1332.370696,10066.800811,-72932.291410
2264.140165,0.000000,3552.988522,-73238.729609
2264.142715,2368.659014,2664.741391,-74464.482406
2264.145264,1332.370696,740.205942,-74311.263306
2264.147814,1036.288319,11991.336260,-72166.195912
2264.150363,1036.288319,12435.459826,-74004.825107
2264.152913,0.000000,-11399.171507,-77222.426198
2264.155462,4293.194464,16728.654289,-71093.662214
2264.158012,0.000000,-1628.453072,-74004.825107
2264.160561,1628.453072,11695.253884,-72166.195912
2264.163117,-592.164754,11843.295072,-76915.987999
2264.165672,-4441.235652,1036.288319,-75537.016103
2264.168227,2516.700203,18357.107362,-70787.224015
2264.170782,0.000000,8882.471304,-71706.538613
2264.173337,2664.741391,11843.295072,-74311.263306
2264.175892,-740.205942,-11251.130318,-75843.454302
2264.178447,888.247130,888.247130,-70787.224015
2264.181002,-2812.782580,-13175.665768,-73085.510509
2264.183557,-148.041188,-6217.729913,-75230.577904
2264.186113,-1480.411884,-11251.130318,-75996.673402
2264.188668,1924.535449,-2368.659014,-71093.662214
2264.191223,-296.082377,-7698.141797,-70787.224015
2264.193778,2220.617826,-1924.535449,-74311.263306
2264.196333,148.041188,-5181.441594,-75537.016103
2264.198888,-1776.494261,2072.576638,-73085.510509
2264.201443,1036.288319,3997.112087,-72319.415011
2264.203998,-1924.535449,-18801.230927,-76915.987999
2264.206553,3108.864956,2812.782580,-69101.813920
2264.209109,888.247130,1036.288319,-73238.729609
2264.211664,2072.576638,148.041188,-76149.892501
2264.214219,592.164754,-6217.729913,-74158.044206
2264.216774,-888.247130,-11103.089130,-71859.757712
2264.219329,-296.082377,-2960.823768,-70480.785816
2264.221884,-3256.906145,-12139.377449,-76303.111601
2264.224439,2960.823768,-3849.070898,-73085.510509
2264.226994,1628.453072,-9326.594869,-72319.415011
2264.229549,1184.329507,-6217.729913,-73851.606007
2264.232104,-296.082377,2664.741391,-73085.510509
2264.234660,0.000000,12139.377449,-73698.386908
2264.237215,-1628.453072,9474.636058,-77528.864398
2264.239770,-1036.288319,13619.789333,-72472.634111
2264.242325,444.123565,7254.018232,-71859.757712
2264.244880,1184.329507,8290.306550,-73698.386908
2264.247435,1628.453072,2664.741391,-76456.330700
2264.249990,444.123565,3552.988522,-73238.729609
2264.252545,-296.082377,3997.112087,-71553.319513
2264.255100,-1628.453072,1628.453072,-73545.167808
2264.257656,-592.164754,-1480.411884,-74924.139704
2264.260211,1332.370696,15248.242405,-70634.004916
2264.262766,444.123565,5329.482782,-75996.673402
2264.265327,1776.494261,-8438.347739,-75843.454302
2264.267887,2220.617826,14952.160028,-69408.252119
2264.270447,-2072.576638,6217.729913,-75230.577904
2264.273006,-444.123565,8142.265362,-75383.797003
2264.275566,0.000000,13027.624579,-71859.757712
2264.278126,1628.453072,10807.006753,-72319.415011
2264.280685,2664.741391,11843.295072,-73085.510509
2264.283245,1332.370696,9474.636058,-75843.454302
2264.285805,1628.453072,-296.082377,-73391.948708
2264.288365,0.000000,-4737.318029,-71553.319513
2264.290924,-1036.288319,-10214.842000,-74004.825107
2264.293484,-1628.453072,-11399.171507,-75383.797003
2264.296044,1924.535449,-4293.194464,-73698.386908
2264.298603,888.247130,-10362.883188,-74770.920605
2264.301163,2220.617826,-592.164754,-70327.566716
2264.303723,296.082377,-5773.606348,-74464.482406
2264.306282,-1184.329507,-1628.453072,-75077.358804
2264.308842,0.000000,888.247130,-74770.920605
2264.311402,-2812.782580,-3997.112087,-74311.263306
2264.313961,2516.700203,7254.018232,-70327.566716
2264.316521,0.000000,-1036.288319,-72932.291410
2264.319081,0.000000,4293.194464,-72779.072310
2264.321641,592.164754,-8290.306550,-77528.864398
2264.324200,296.082377,-5921.647536,-73238.729609
2264.326760,-1480.411884,-4145.153275,-69561.471218
2264.329320,-1480.411884,-9918.759623,-72319.415011
2264.331879,148.041188,-7846.182985,-76149.892501
2264.334439,0.000000,-11695.253884,-75843.454302
2264.336999,2516.700203,-2812.782580,-70787.224015
2264.339558,1332.370696,-7402.059420,-72012.976812
2264.342118,-296.082377,6809.894666,-74158.044206
2264.344678,-1480.411884,9918.759623,-75537.016103
2264.347237,-1924.535449,13471.748144,-73085.510509
2264.349797,1184.329507,11843.295072,-72166.195912
2264.352357,2220.617826,7550.100608,-72932.291410
2264.354916,1776.494261,5921.647536,-74464.482406
2264.357476,1924.535449,5921.647536,-73391.948708
2264.360036,-1036.288319,-296.082377,-74464.482406
2264.362596,-740.205942,3256.906145,-73545.167808
2264.365155,148.041188,1332.370696,-74311.263306
2264.367718,740.205942,5921.647536,-71859.757712
2264.370281,2960.823768,21614.013506,-71553.319513
2264.372844,-740.205942,-15100.201217,-78754.617194
2264.375406,2960.823768,9622.677246,-72012.976812
2264.377969,-1184.329507,6809.894666,-71246.881314
2264.380532,-740.205942,12287.418637,-72625.853210
2264.383095,0.000000,8438.347739,-77069.207099
2264.385658,-1776.494261,3849.070898,-75077.358804
2264.388220,888.247130,19689.478057,-68335.718422
2264.390783,1628.453072,6957.935855,-76915.987999
2264.393346,888.247130,8586.388927,-73698.386908
2264.395909,444.123565,-7994.224174,-74464.482406
2264.398471,-296.082377,-2960.823768,-71706.538613
2264.401034,-2812.782580,-8438.347739,-74617.701505
2264.403597,2072.576638,-13767.830521,-76149.892501
2264.406160,1036.288319,-7846.182985,-72932.291410
2264.408723,2812.782580,-1332.370696,-70787.224015
2264.411285,-148.041188,-7994.224174,-73391.948708
2264.413848,-2072.576638,-1036.288319,-73851.606007
2264.416411,-444.123565,-1332.370696,-74617.701505
2264.418974,-2664.741391,148.041188,-74158.044206
2264.421537,2368.659014,-6661.853478,-72625.853210
2264.424099,2072.576638,2812.782580,-69867.909418
2264.426662,740.205942,-296.082377,-74464.482406
2264.429225,1332.370696,-2368.659014,-76456.330700
2264.431788,888.247130,-8142.265362,-76303.111601
2264.434351,-1480.411884,-1924.535449,-68335.718422
2264.436913,-592.164754,-9622.677246,-71859.757712
2264.439476,740.205942,-10955.047942,-75690.235202
2264.442039,2072.576638,-5921.647536,-74004.825107
2264.444602,888.247130,-8586.388927,-73851.606007
2264.447164,1628.453072,-10955.047942,-72932.291410
2264.449727,296.082377,6217.729913,-71553.319513
2264.452290,-888.247130,8142.265362,-76762.768900
2264.454853,-1184.329507,13619.789333,-74924.139704
2264.457416,-740.205942,13323.706956,-72625.853210
2264.459978,1332.370696,9178.553681,-71859.757712
2264.462541,1184.329507,6217.729913,-74770.920605
2264.465104,-888.247130,-148.041188,-75383.797003
2264.467667,-444.123565,8142.265362,-71706.538613
2264.470232,-3701.029710,-1480.411884,-74004.825107
2264.472798,-296.082377,4885.359217,-74770.920605
2264.475364,-740.205942,2072.576638,-72472.634111
2264.477930,592.164754,8290.306550,-71553.319513
2264.480495,2812.782580,6661.853478,-74311.263306
2264.483061,-1480.411884,-7994.224174,-75996.673402
2264.485627,-888.247130,9178.553681,-72319.415011
2264.488192,-740.205942,10807.006753,-76762.768900
2264.490758,-1924.535449,4589.276840,-76149.892501
2264.493324,2812.782580,15248.242405,-68948.594820
2264.495889,2220.617826,12583.501014,-72319.415011
2264.498455,1924.535449,11251.130318,-76149.892501
2264.501021,1480.411884,5773.606348,-76149.892501
2264.503587,1924.535449,1924.535449,-72625.853210
2264.506152,-1924.535449,-12583.501014,-72319.415011
2264.508718,296.082377,-5181.441594,-72472.634111
2264.511284,1628.453072,-10214.842000,-74770.920605
2264.513849,1184.329507,-3701.029710,-73851.606007
2264.516415,1036.288319,-9030.512492,-74617.701505
2264.518981,1628.453072,-3849.070898,-72166.195912
2264.521546,444.123565,296.082377,-72932.291410
2264.524112,-1628.453072,-2220.617826,-76456.330700
2264.526678,-1332.370696,1628.453072,-74464.482406
2264.529243,-444.123565,592.164754,-73238.729609
2264.531809,1628.453072,-6809.894666,-73545.167808
2264.534375,1776.494261,-6661.853478,-74617.701505
2264.536941,1332.370696,-1628.453072,-73545.167808
2264.539506,740.205942,-1776.494261,-75077.358804
2264.542072,-1332.370696,-8882.471304,-72012.976812
2264.544638,-1036.288319,-6957.935855,-73238.729609
2264.547203,-1036.288319,-14063.912898,-75077.358804
2264.549769,2812.782580,-6217.729913,-73545.167808
2264.552335,1184.329507,-8438.347739,-73851.606007
2264.554900,1332.370696,-4737.318029,-72932.291410
2264.557466,148.041188,3701.029710,-74617.701505
2264.560032,-1628.453072,13915.871710,-76456.330700
2264.562597,0.000000,10362.883188,-74311.263306
2264.565163,1480.411884,14359.995275,-70940.443115
2264.567729,1332.370696,6661.853478,-74311.263306
2264.570295,1184.329507,6809.894666,-75537.016103
2264.572863,148.041188,2368.659014,-73545.167808
2264.575431,0.000000,3552.988522,-73545.167808
2264.577999,-592.164754,-1184.329507,-73698.386908
2264.580568,1480.411884,6661.853478,-73238.729609
2264.583136,1776.494261,-1776.494261,-75996.673402
2264.585704,2072.576638,12139.377449,-72166.195912
2264.588272,444.123565,4145.153275,-75690.235202
2264.590841,-1924.535449,-3256.906145,-73545.167808
2264.593409,592.164754,20281.642811,-70021.128517
2264.595977,-2220.617826,-2220.617826,-78907.836294
2264.598545,592.164754,16432.571912,-73085.510509
2264.601114,2516.700203,11991.336260,-71246.881314
2264.603682,1036.288319,15396.283594,-74311.263306
2264.606250,-444.123565,3849.070898,-76456.330700
2264.608819,592.164754,444.123565,-74158.044206
2264.611387,-1332.370696,-4293.194464,-70787.224015
2264.613955,-888.247130,-8142.265362,-73545.167808
2264.616523,-1184.329507,-16136.489536,-76609.549800
2264.619092,1924.535449,-3997.112087,-71093.662214
2264.621660,2072.576638,-11399.171507,-73085.510509
2264.624228,1036.288319,0.000000,-72319.415011
2264.626796,1776.494261,-7550.100608,-75077.358804
2264.629365,-888.247130,-888.247130,-74617.701505
2264.631933,0.000000,2812.782580,-73238.729609
2264.634501,444.123565,-8586.388927,-74004.825107
2264.637070,1776.494261,2664.741391,-70787.224015
2264.639638,1924.535449,1332.370696,-75077.358804
2264.642206,444.123565,-5773.606348,-77222.426198
2264.644774,1628.453072,-4441.235652,-74311.263306
2264.647343,-888.247130,-2220.617826,-67722.842023
2264.649911,-1628.453072,-10955.047942,-73545.167808
2264.652479,1776.494261,-9918.759623,-75537.016103
2264.655047,740.205942,-11399.171507,-76303.111601
2264.657616,592.164754,-6069.688724,-71859.757712
2264.660184,1036.288319,-7846.182985,-74311.263306
2264.662752,1184.329507,5033.400406,-71706.538613
2264.665320,-1332.370696,9770.718434,-74464.482406
2264.667889,-2664.741391,15544.324782,-74617.701505
2264.670457,-444.123565,13619.789333,-73851.606007
2264.673025,1184.329507,9918.759623,-72166.195912
2264.675595,296.082377,5773.606348,-75077.358804
2264.678164,-148.041188,148.041188,-75077.358804
2264.680733,1480.411884,5773.606348,-72319.415011
2264.683303,-1924.535449,1332.370696,-71859.757712
2264.685872,148.041188,6809.894666,-73238.729609
2264.688441,-740.205942,7994.224174,-74924.139704
2264.691011,740.205942,0.000000,-74311.263306
2264.693580,4145.153275,7254.018232,-72625.853210
2264.696149,1036.288319,3108.864956,-71246.881314
2264.698719,2220.617826,3849.070898,-74617.701505
2264.701288,1332.370696,13471.748144,-75077.358804
2264.703857,-2220.617826,7698.141797,-74004.825107
2264.706427,0.000000,16284.530724,-70940.443115
2264.708996,2072.576638,7550.100608,-74617.701505
2264.711565,2072.576638,15840.407159,-73085.510509
2264.714135,1184.329507,-1036.288319,-75383.797003
2264.716704,740.205942,-296.082377,-71400.100414
2264.719273,-296.082377,-17616.901420,-74464.482406
2264.721843,-1628.453072,-8882.471304,-72779.072310
2264.724412,-296.082377,-10362.883188,-75690.235202
2264.726981,2368.659014,-4293.194464,-71400.100414
2264.729551,444.123565,-1924.535449,-71246.881314
2264.732120,1776.494261,-4293.194464,-74924.139704
2264.734689,148.041188,-1628.453072,-74617.701505
2264.737259,444.123565,2664.741391,-73545.167808
2264.739828,-1184.329507,2812.782580,-72472.634111
2264.742397,-2516.700203,-15840.407159,-77835.302597
2264.744967,2516.700203,-1924.535449,-69255.033019
2264.747536,1184.329507,10807.006753,-70174.347617
2264.750105,-1184.329507,-10510.924376,-76149.892501
2264.752675,1036.288319,-8586.388927,-73851.606007
2264.755244,-888.247130,-8586.388927,-71400.100414
2264.757813,-1924.535449,-10807.006753,-75996.673402
2264.760383,1184.329507,-8438.347739,-74311.263306
2264.762952,296.082377,-10066.800811,-72779.072310
2264.765521,888.247130,-6217.729913,-70021.128517
2264.768091,2368.659014,1924.535449,-75077.358804
2264.770660,1036.288319,14359.995275,-74924.139704
2264.773229,-1036.288319,10362.883188,-73545.167808
2264.775799,296.082377,14211.954086,-72166.195912
2264.778369,0.000000,5329.482782,-75383.797003
2264.780940,1924.535449,11399.171507,-72012.976812
2264.783510,592.164754,1776.494261,-74770.920605
2264.786081,2960.823768,2960.823768,-74004.825107
2264.788651,1332.370696,1184.329507,-74158.044206
2264.791222,888.247130,6513.812290,-71400.100414
2264.793792,-740.205942,-2664.741391,-75230.577904
2264.796363,-148.041188,2664.741391,-75383.797003
2264.798933,3552.988522,740.205942,-75077.358804
2264.801504,888.247130,7550.100608,-69408.252119
2264.804074,2368.659014,14656.077652,-73085.510509
2264.806645,-888.247130,-296.082377,-78754.617194
2264.809215,-592.164754,14211.954086,-74004.825107
2264.811786,-148.041188,16136.489536,-69714.690318
2264.814356,-1332.370696,10807.006753,-74004.825107
2264.816927,888.247130,5033.400406,-74770.920605
2264.819497,2812.782580,740.205942,-72932.291410
2264.822068,-148.041188,-10066.800811,-73085.510509
2264.824639,444.123565,-7254.018232,-73698.386908
2264.827209,-740.205942,-15692.365970,-75996.673402
2264.829780,-740.205942,-7846.182985,-73085.510509
2264.832350,-1036.288319,-7846.182985,-72779.072310
2264.834921,1332.370696,-2220.617826,-72319.415011
2264.837491,2072.576638,-148.041188,-73545.167808
2264.840062,1184.329507,-888.247130,-74924.139704
2264.842632,2368.659014,2664.741391,-70480.785816
2264.845203,-592.164754,5477.523971,-71553.319513
2264.847773,-3404.947333,-26055.249158,-78294.959896
2264.850344,2220.617826,6365.771101,-70480.785816
2264.852914,2220.617826,5181.441594,-72012.976812
2264.855485,444.123565,-13323.706956,-76303.111601
2264.858055,3849.070898,-592.164754,-72625.853210
2264.860626,-592.164754,-22650.301825,-74158.044206
2264.863196,1924.535449,2072.576638,-69408.252119
2264.865767,-2516.700203,-17320.819043,-79367.493593
2264.868337,-740.205942,-1036.288319,-71246.881314
2264.870908,1776.494261,-4589.276840,-72472.634111
2264.873478,1776.494261,12879.583391,-75230.577904
2264.876049,1184.329507,11103.089130,-74464.482406
2264.878619,3108.864956,15100.201217,-70940.443115
2264.881190,-888.247130,8882.471304,-73851.606007
2264.883761,-444.123565,14063.912898,-74311.263306
2264.886331,-444.123565,-888.247130,-77528.864398
2264.888902,-1776.494261,3404.947333,-71706.538613
2264.891472,2368.659014,2960.823768,-72319.415011
2264.894043,1332.370696,740.205942,-74924.139704
2264.896614,1776.494261,17024.736666,-70940.443115
2264.899184,-1480.411884,-1628.453072,-76149.892501
2264.901755,-2368.659014,296.082377,-75843.454302
2264.904325,-888.247130,1776.494261,-70940.443115
2264.906896,1924.535449,13175.665768,-72166.195912
2264.909467,1480.411884,9918.759623,-75537.016103
2264.912037,740.205942,8586.388927,-77835.302597
2264.914608,1776.494261,15840.407159,-69867.909418
2264.917179,-1184.329507,9770.718434,-74617.701505
2264.919749,0.000000,11991.336260,-74158.044206
2264.922320,-296.082377,-5181.441594,-75843.454302
2264.924890,1480.411884,888.247130,-68948.594820
2264.927461,296.082377,-14211.954086,-75230.577904
2264.930032,1332.370696,-12139.377449,-74311.263306
2264.932602,1036.288319,-11991.336260,-74158.044206
2264.935173,0.000000,-3404.947333,-70021.128517
2264.937743,-1480.411884,-5625.565159,-74617.701505
2264.940314,888.247130,-3404.947333,-75383.797003
2264.942885,444.123565,0.000000,-73391.948708
2264.945455,1628.453072,1628.453072,-73085.510509
2264.948026,2368.659014,-4885.359217,-72472.634111
2264.950597,-1480.411884,-444.123565,-72625.853210
2264.953167,888.247130,-4293.194464,-74770.920605
2264.955738,148.041188,1332.370696,-75537.016103
2264.958308,-1480.411884,-8438.347739,-74311.263306
2264.960879,1332.370696,-7846.182985,-69101.813920
2264.963450,2664.741391,-2960.823768,-71246.881314
2264.966020,1184.329507,-17024.736666,-77988.521696
2264.968591,-148.041188,-7846.182985,-73851.606007
2264.971162,296.082377,-10362.883188,-72472.634111
2264.973732,-740.205942,6809.894666,-72012.976812
2264.976303,-1776.494261,-2812.782580,-78448.178995
2264.978873,2664.741391,22798.343014,-71400.100414
2264.981444,148.041188,13915.871710,-73238.729609
2264.984015,1184.329507,14952.160028,-72779.072310
2264.986586,444.123565,1184.329507,-76915.987999
2264.989157,-1332.370696,5625.565159,-73851.606007
2264.991729,1628.453072,5921.647536,-70787.224015
2264.994300,592.164754,-2368.659014,-75077.358804
2264.996871,1776.494261,6365.771101,-72625.853210
2264.999442,1184.329507,12879.583391,-73698.386908
2265.002013,-1628.453072,-1924.535449,-76456.330700
2265.004584,1776.494261,-2960.823768,-73698.386908
2265.007156,-1184.329507,15544.324782,-67722.842023
2265.009727,-2664.741391,5181.441594,-75996.673402
2265.012298,-444.123565,8438.347739,-78601.398095
2265.014869,148.041188,8142.265362,-75690.235202
2265.017440,-2072.576638,17616.901420,-68182.499322
2265.020011,1776.494261,10362.883188,-74924.139704
2265.022582,-444.123565,7550.100608,-74464.482406
2265.025154,-592.164754,-2220.617826,-73238.729609
2265.027725,-148.041188,-9474.636058,-72625.853210
2265.030296,-148.041188,-5477.523971,-72932.291410
2265.032867,2368.659014,-18061.024985,-75690.235202
2265.035438,2072.576638,-9178.553681,-71553.319513
2265.038009,2220.617826,-9918.759623,-73391.948708
2265.040581,-296.082377,1776.494261,-73851.606007
2265.043152,-1332.370696,592.164754,-72932.291410
2265.045723,740.205942,296.082377,-74311.263306
2265.048294,296.082377,-5477.523971,-74311.263306
2265.050865,2960.823768,-2368.659014,-71859.757712
2265.053436,592.164754,-1776.494261,-73238.729609
2265.056008,296.082377,1036.288319,-73851.606007
2265.058579,1036.288319,-3849.070898,-76915.987999
2265.061150,-3256.906145,-14359.995275,-74770.920605
2265.063721,2368.659014,-7994.224174,-69561.471218
2265.066293,148.041188,-7846.182985,-72779.072310
2265.068865,2072.576638,-15248.242405,-77528.864398
2265.071437,1480.411884,-6809.894666,-73545.167808
2265.074008,-2072.576638,-4441.235652,-72932.291410
2265.076580,2368.659014,5625.565159,-72625.853210
2265.079152,0.000000,10955.047942,-75996.673402
2265.081724,-1628.453072,11991.336260,-72932.291410
2265.084296,148.041188,18801.230927,-71400.100414
2265.086868,2072.576638,7550.100608,-75077.358804
2265.089440,296.082377,8142.265362,-75230.577904
2265.092011,-1480.411884,-148.041188,-74464.482406
2265.094583,444.123565,-296.082377,-72932.291410
2265.097155,-740.205942,1480.411884,-72166.195912
2265.099727,-1184.329507,7105.977043,-74158.044206
2265.102299,1924.535449,10066.800811,-73698.386908
2265.104871,-444.123565,-6069.688724,-76915.987999
2265.107442,4737.318029,16136.489536,-69255.033019
2265.110014,592.164754,13915.871710,-68948.594820
2265.112586,-888.247130,3849.070898,-74464.482406
2265.115158,1924.535449,15988.448347,-76303.111601
2265.117730,-2664.741391,7698.141797,-75690.235202
2265.120302,592.164754,18505.148550,-68182.499322
2265.122874,2368.659014,6957.935855,-74004.825107
2265.125445,1332.370696,3552.988522,-75383.797003
2265.128017,1332.370696,-9178.553681,-73545.167808
2265.130589,740.205942,0.000000,-71553.319513
2265.133161,-2960.823768,-20429.683999,-77835.302597
2265.135733,1924.535449,-7105.977043,-72779.072310
2265.138305,148.041188,-15840.407159,-71706.538613
2265.140877,1628.453072,5773.606348,-69714.690318
2265.143448,2516.700203,-5773.606348,-77988.521696
2265.146020,444.123565,3552.988522,-75843.454302
2265.148592,1480.411884,3256.906145,-71400.100414
2265.151164,-2072.576638,-13323.706956,-75077.358804
2265.153736,-1924.535449,888.247130,-71400.100414
2265.156308,0.000000,-2072.576638,-73085.510509
2265.158880,148.041188,-2516.700203,-74464.482406
2265.161451,-740.205942,-2516.700203,-75383.797003
2265.164023,1036.288319,-18061.024985,-71859.757712
2265.166595,-2072.576638,-7105.977043,-72012.976812
2265.169166,1776.494261,-17172.777854,-74924.139704
2265.171738,-1184.329507,-4145.153275,-73698.386908
2265.174309,-1036.288319,-11843.295072,-74770.920605
2265.176880,2368.659014,11399.171507,-71093.662214
2265.179452,2072.576638,5625.565159,-76303.111601
2265.182023,1480.411884,12139.377449,-74617.701505
2265.184594,-296.082377,17172.777854,-69867.909418
2265.187165,0.000000,12583.501014,-74464.482406
2265.189737,-444.123565,3849.070898,-76762.768900
2265.192308,1480.411884,1480.411884,-74770.920605
2265.194879,2220.617826,1480.411884,-69714.690318
2265.197450,1036.288319,1036.288319,-72472.634111
2265.200022,1332.370696,-444.123565,-75843.454302
2265.202593,592.164754,7994.224174,-73851.606007
2265.205164,0.000000,12287.418637,-73391.948708
2265.207736,-296.082377,-1776.494261,-74464.482406
2265.210307,1924.535449,7994.224174,-71859.757712
2265.212878,1332.370696,9474.636058,-76149.892501
2265.215449,-296.082377,10807.006753,-75996.673402
2265.218021,1332.370696,18949.272115,-71859.757712
2265.220592,296.082377,9918.759623,-72932.291410
2265.223163,-1036.288319,10214.842000,-73085.510509
2265.225735,-444.123565,-2072.576638,-75843.454302
2265.228306,-888.247130,2812.782580,-72472.634111
2265.230877,-148.041188,-12583.501014,-73851.606007
2265.233448,1036.288319,-13027.624579,-76149.892501
2265.236020,-1184.329507,-13619.789333,-74617.701505
2265.238591,-148.041188,-7105.977043,-70174.347617
2265.241162,-1332.370696,-5921.647536,-71859.757712
2265.243734,592.164754,-296.082377,-75996.673402
2265.246305,-740.205942,0.000000,-76456.330700
2265.248876,2664.741391,1480.411884,-72625.853210
2265.251447,888.247130,-5625.565159,-70940.443115
2265.254019,-2072.576638,444.123565,-72319.415011
2265.256590,1332.370696,7105.977043,-71246.881314
2265.259161,-1480.411884,-10510.924376,-78141.740796
2265.261733,-1036.288319,-2812.782580,-72625.853210
2265.264304,1480.411884,-15988.448347,-71553.319513
2265.266875,1924.535449,-5329.482782,-67876.061123
2265.269446,1776.494261,-16432.571912,-78141.740796
2265.272018,-592.164754,-7550.100608,-75230.577904
2265.274589,-888.247130,-9030.512492,-73698.386908
2265.277160,1332.370696,8882.471304,-71859.757712
2265.279731,592.164754,15988.448347,-74464.482406
2265.282302,592.164754,6365.771101,-73238.729609
2265.284874,2220.617826,19689.478057,-70787.224015
2265.287445,740.205942,13323.706956,-74311.263306
2265.290016,-296.082377,4885.359217,-78448.178995
2265.292587,-444.123565,-296.082377,-73851.606007
2265.295158,-296.082377,3997.112087,-69561.471218
2265.297730,-2664.741391,-2812.782580,-74464.482406
2265.300301,-888.247130,-1776.494261,-74770.920605
2265.302872,1924.535449,10066.800811,-72932.291410
2265.305443,740.205942,7105.977043,-73851.606007
2265.308014,-1332.370696,5181.441594,-74158.044206
2265.310586,-1184.329507,4293.194464,-72319.415011
2265.313157,-444.123565,12731.542202,-75690.235202
2265.315728,-592.164754,8438.347739,-75230.577904
2265.318299,888.247130,22354.219448,-70787.224015
2265.320870,-740.205942,8882.471304,-71400.100414
2265.323442,1924.535449,9178.553681,-75537.016103
2265.326013,-592.164754,-8290.306550,-76149.892501
2265.328584,-444.123565,-3404.947333,-70327.566716
2265.331155,-592.164754,-7550.100608,-71859.757712
2265.333726,-296.082377,-16580.613101,-77835.302597
2265.336298,148.041188,-14359.995275,-72932.291410
2265.338869,1184.329507,-2812.782580,-68795.375720
2265.341440,1036.288319,-4589.276840,-73698.386908
2265.344011,2812.782580,-148.041188,-77835.302597
2265.346582,0.000000,3701.029710,-74158.044206
2265.349154,-1184.329507,-1480.411884,-71706.538613
2265.351725,444.123565,-14063.912898,-75230.577904
2265.354296,2072.576638,4441.235652,-70634.004916
2265.356867,1036.288319,-7105.977043,-74311.263306
2265.359438,2368.659014,592.164754,-77682.083497
2265.362010,148.041188,-13619.789333,-76915.987999
2265.364581,-444.123565,-10214.842000,-66803.527426
2265.367152,592.164754,-8882.471304,-70174.347617
2265.369723,-3108.864956,-19245.354492,-79980.369991
2265.372294,-1184.329507,-9030.512492,-75383.797003
2265.374865,1184.329507,5033.400406,-73238.729609
2265.377437,444.123565,14359.995275,-75690.235202
2265.380008,1036.288319,3997.112087,-75843.454302
2265.382579,1332.370696,21021.848753,-67416.403824
2265.385150,-1184.329507,14508.036463,-71859.757712
2265.387721,-592.164754,8438.347739,-79214.274493
2265.390292,-592.164754,-592.164754,-78141.740796
2265.392863,0.000000,9474.636058,-66650.308326
2265.395434,1924.535449,-4441.235652,-72625.853210
2265.398006,740.205942,7402.059420,-75077.358804
2265.400577,-1776.494261,-888.247130,-75537.016103
2265.403148,296.082377,-740.205942,-73698.386908
2265.405719,5921.647536,7254.018232,-71706.538613
2265.408290,-296.082377,11547.212695,-69101.813920
2265.410861,-148.041188,8142.265362,-72625.853210
2265.413432,296.082377,12731.542202,-80593.246390
2265.416003,-2368.659014,7254.018232,-77375.645298
2265.418575,888.247130,23094.425390,-65424.555529
2265.421146,740.205942,7550.100608,-72472.634111
2265.423717,2516.700203,-1776.494261,-75077.358804
2265.426288,-148.041188,-19393.395680,-72932.291410
2265.428859,740.205942,5477.523971,-71400.100414
2265.431430,-3256.906145,-20725.766376,-79980.369991
2265.434001,1036.288319,-11547.212695,-74617.701505
2265.436572,-1036.288319,-11251.130318,-68488.937521
2265.439143,1776.494261,5477.523971,-68335.718422
2265.441715,444.123565,-6957.935855,-79673.931792
2265.444286,296.082377,2220.617826,-74617.701505
2265.446857,-740.205942,-1036.288319,-71093.662214
2265.449428,-888.247130,-2368.659014,-74004.825107
2265.451999,-2368.659014,-7254.018232,-73851.606007
2265.454570,296.082377,5329.482782,-72166.195912
2265.457141,-1628.453072,-4885.359217,-74464.482406
2265.459712,2664.741391,-8882.471304,-73085.510509
2265.462284,2220.617826,-11103.089130,-71706.538613
2265.464855,0.000000,-15840.407159,-73085.510509
2265.467426,888.247130,-14656.077652,-76609.549800
2265.469997,-1332.370696,-8142.265362,-74464.482406
2265.472568,1776.494261,12583.501014,-70174.347617
2265.475139,1332.370696,8142.265362,-75537.016103
2265.477709,1776.494261,14656.077652,-74004.825107
2265.480279,592.164754,16284.530724,-69867.909418
2265.482849,0.000000,14211.954086,-71553.319513
2265.485419,-888.247130,6957.935855,-78141.740796
2265.487989,-1480.411884,3108.864956,-77069.207099
2265.490559,-444.123565,740.205942,-70021.128517
2265.493130,1628.453072,740.205942,-71400.100414
2265.495700,3256.906145,2960.823768,-75690.235202
2265.498270,296.082377,740.205942,-75077.358804
2265.500840,1332.370696,16284.530724,-70787.224015
2265.503410,-1332.370696,2072.576638,-75843.454302
2265.505980,-2220.617826,6217.729913,-73391.948708
2265.508550,888.247130,12879.583391,-73391.948708
2265.511120,-148.041188,7994.224174,-74158.044206
2265.513690,1628.453072,18505.148550,-72166.195912
2265.516260,1628.453072,11251.130318,-73238.729609
2265.518830,-444.123565,10807.006753,-73545.167808
2265.521400,-888.247130,-10066.800811,-75690.235202
2265.523970,-888.247130,-7105.977043,-72932.291410
2265.526540,-592.164754,-7698.141797,-71400.100414
2265.529110,740.205942,-13027.624579,-76456.330700
2265.531680,1332.370696,-16284.530724,-75077.358804
2265.534250,2220.617826,-3849.070898,-68488.937521
2265.536820,444.123565,-3997.112087,-73085.510509
2265.539390,740.205942,-1036.288319,-76915.987999
2265.541960,-1036.288319,2516.700203,-74311.263306
2265.544531,296.082377,2368.659014,-71400.100414
2265.547101,3404.947333,2812.782580,-71093.662214
2265.549671,-740.205942,-11399.171507,-77069.207099
2265.552241,2960.823768,-4293.194464,-72472.634111
2265.554811,1332.370696,-296.082377,-73698.386908
2265.557381,-1184.329507,-15544.324782,-74158.044206
2265.559951,0.000000,-4441.235652,-71706.538613
2265.562521,-2664.741391,-22650.301825,-74311.263306
2265.565091,1628.453072,-6957.935855,-73238.729609
2265.567661,1036.288319,-6069.688724,-75077.358804
2265.570231,444.123565,11991.336260,-72779.072310
2265.572801,-740.205942,9178.553681,-74464.482406
2265.575371,444.123565,11843.295072,-75077.358804
2265.577941,-1480.411884,19541.436869,-69255.033019
2265.580511,888.247130,11991.336260,-72779.072310
2265.583080,-148.041188,7254.018232,-76915.987999
2265.585650,2220.617826,888.247130,-75996.673402
2265.588219,1332.370696,4589.276840,-68642.156621
2265.590788,-2220.617826,-1628.453072,-72625.853210
2265.593358,-296.082377,1036.288319,-76456.330700
2265.595927,-1332.370696,4885.359217,-75690.235202
2265.598497,1480.411884,3552.988522,-74158.044206
2265.601066,2368.659014,12139.377449,-70327.566716
2265.603636,592.164754,6069.688724,-73545.167808
2265.606205,2664.741391,10362.883188,-74924.139704
2265.608775,296.082377,10658.965565,-76915.987999
2265.611344,1480.411884,18505.148550,-72319.415011
2265.613913,-1036.288319,15100.201217,-70940.443115
2265.616483,1480.411884,-2220.617826,-74924.139704
2265.619052,1924.535449,-4737.318029,-72166.195912
2265.621622,444.123565,-8882.471304,-72932.291410
2265.624191,296.082377,-11843.295072,-75996.673402
2265.626761,148.041188,-16284.530724,-77375.645298
2265.629330,888.247130,-10658.965565,-71706.538613
2265.631900,-148.041188,-5625.565159,-69561.471218
2265.634469,-740.205942,-2368.659014,-74464.482406
2265.637038,-1036.288319,-1332.370696,-76762.768900
2265.639608,3404.947333,-148.041188,-73391.948708
2265.642177,1776.494261,296.082377,-71859.757712
2265.644747,-740.205942,-6217.729913,-74311.263306
2265.647316,-1628.453072,-9622.677246,-73545.167808
2265.649886,-888.247130,7550.100608,-72932.291410
2265.652455,1036.288319,-15840.407159,-76609.549800
2265.655025,1036.288319,-5625.565159,-69408.252119
2265.657594,1184.329507,-16876.695478,-72625.853210
2265.660164,1924.535449,-14952.160028,-74158.044206
2265.662733,-1036.288319,-7550.100608,-74004.825107
2265.665302,-2072.576638,9622.677246,-72166.195912
2265.667872,-1776.494261,13915.871710,-74311.263306
2265.670441,592.164754,3997.112087,-76609.549800
2265.673011,2516.700203,23242.466579,-67876.061123
2265.675580,2220.617826,16580.613101,-69714.690318
2265.678150,1924.535449,7846.182985,-77682.083497
2265.680719,1036.288319,-148.041188,-78141.740796
2265.683255,888.247130,8290.306550,-70021.128517
2265.685791,-444.123565,-5181.441594,-73085.510509
2265.688327,1332.370696,4737.318029,-73085.510509
2265.690862,2220.617826,18357.107362,-71553.319513
2265.693398,888.247130,-8586.388927,-79520.712692
2265.695934,1924.535449,2220.617826,-73085.510509
2265.698470,2516.700203,19541.436869,-69101.813920
2265.701006,-3256.906145,5625.565159,-72472.634111
2265.703542,148.041188,13471.748144,-80440.027290
2265.706077,-2664.741391,8142.265362,-74770.920605
2265.708613,2220.617826,26203.290347,-68488.937521
2265.711149,3404.947333,-4145.153275,-75383.797003
2265.713685,2072.576638,888.247130,-74004.825107
2265.716221,-740.205942,-17468.860231,-72166.195912
2265.718756,-740.205942,-3701.029710,-74004.825107
2265.721292,-1924.535449,-19097.313304,-77682.083497
2265.723828,1924.535449,-9030.512492,-73391.948708
2265.726364,1184.329507,-7550.100608,-68029.280222
2265.728900,1184.329507,0.000000,-73238.729609
2265.731436,2516.700203,296.082377,-77375.645298
2265.733971,0.000000,3997.112087,-72932.291410
2265.736507,-1776.494261,4441.235652,-70787.224015
2265.739043,-1184.329507,-13619.789333,-77835.302597
2265.741579,1628.453072,-296.082377,-70634.004916
2265.744115,444.123565,1036.288319,-71553.319513
2265.746651,3256.906145,-5329.482782,-74464.482406
2265.749186,0.000000,-17764.942608,-74004.825107
2265.751722,888.247130,-10807.006753,-71093.662214
2265.754258,-1480.411884,-14952.160028,-73698.386908
2265.756794,-1480.411884,-12731.542202,-77222.426198
2265.759330,1924.535449,7402.059420,-71553.319513
2265.761865,888.247130,11991.336260,-72625.853210
2265.764401,2072.576638,14952.160028,-74770.920605
2265.766937,1036.288319,13175.665768,-72319.415011
2265.769473,-296.082377,17024.736666,-70327.566716
2265.772009,-1184.329507,11547.212695,-75537.016103
2265.774545,-592.164754,1332.370696,-78141.740796
2265.777080,-592.164754,-148.041188,-71706.538613
2265.779616,2960.823768,2072.576638,-69867.909418
2265.782152,1480.411884,2368.659014,-76762.768900
2265.784695,-1628.453072,-4145.153275,-76915.987999
2265.787237,2516.700203,18801.230927,-70174.347617
2265.789780,-3849.070898,4737.318029,-74004.825107
2265.792322,-2072.576638,1628.453072,-75230.577904
2265.794865,2516.700203,17468.860231,-71706.538613
2265.797408,-148.041188,9178.553681,-74924.139704
2265.799950,3404.947333,16284.530724,-73851.606007
2265.802493,444.123565,12583.501014,-72932.291410
2265.805035,148.041188,6069.688724,-71246.881314
2265.807578,-444.123565,-10066.800811,-75383.797003
2265.810121,-1480.411884,-9030.512492,-74924.139704
2265.812663,-592.164754,-9770.718434,-73545.167808
2265.815206,3404.947333,-12879.583391,-75230.577904
2265.817748,1332.370696,-15544.324782,-74158.044206
2265.820291,1184.329507,-6069.688724,-70174.347617
2265.822834,444.123565,1036.288319,-73391.948708
2265.825376,-2516.700203,-296.082377,-77835.302597
2265.827919,3256.906145,4293.194464,-72779.072310
2265.830461,592.164754,3701.029710,-70480.785816
2265.833004,-2072.576638,-16876.695478,-77069.207099
2265.835546,2664.741391,-1776.494261,-71553.319513
2265.838089,-148.041188,-888.247130,-73698.386908
2265.840632,-1480.411884,-13175.665768,-73851.606007
2265.843174,888.247130,-5921.647536,-73391.948708
2265.845717,-2516.700203,-24130.713709,-75077.358804
2265.848259,5181.441594,-8882.471304,-71093.662214
2265.850802,740.205942,-5033.400406,-74311.263306
2265.853345,-592.164754,13767.830521,-74004.825107
2265.855887,-296.082377,14508.036463,-73545.167808
2265.858430,-444.123565,9918.759623,-74770.920605
2265.860972,-444.123565,17320.819043,-69255.033019
2265.863515,2664.741391,13027.624579,-72779.072310
2265.866058,1184.329507,8438.347739,-77528.864398
2265.868600,2516.700203,2072.576638,-74924.139704
2265.871143,592.164754,1628.453072,-71553.319513
2265.873685,-592.164754,-3997.112087,-71553.319513
2265.876228,2220.617826,11251.130318,-71093.662214
2265.878771,-444.123565,12583.501014,-75996.673402
2265.881313,-592.164754,-1036.288319,-77375.645298
2265.883856,4293.194464,6217.729913,-72625.853210
2265.886403,-296.082377,17024.736666,-68795.375720
2265.888951,-148.041188,9918.759623,-75537.016103
2265.891498,-148.041188,11695.253884,-76456.330700
2265.894046,-1924.535449,13915.871710,-72932.291410
2265.896593,-148.041188,15544.324782,-71093.662214
2265.899141,1480.411884,-7550.100608,-75230.577904
2265.901688,2368.659014,-10510.924376,-71553.319513
2265.904236,-148.041188,-6661.853478,-71400.100414
2265.906783,-888.247130,-13619.789333,-77988.521696
2265.909331,-1628.453072,-18209.066173,-76762.768900
2265.911878,888.247130,-5329.482782,-68642.156621
2265.914426,-2072.576638,-1332.370696,-71400.100414
2265.916973,444.123565,-3849.070898,-77069.207099
2265.919521,888.247130,1924.535449,-74464.482406
2265.922069,-1480.411884,2664.741391,-71553.319513
2265.924616,-888.247130,-4589.276840,-74464.482406
2265.927164,-1036.288319,-6069.688724,-73238.729609
2265.929711,148.041188,5033.400406,-71093.662214
2265.932259,-296.082377,-16284.530724,-77375.645298
2265.934806,592.164754,-9178.553681,-72012.976812
2265.937354,2072.576638,-14656.077652,-71093.662214
2265.939901,1332.370696,-12139.377449,-72625.853210
2265.942449,1036.288319,-17024.736666,-79367.493593
2265.944996,592.164754,11991.336260,-71400.100414
2265.947544,444.123565,14656.077652,-72319.415011
2265.950091,740.205942,10362.883188,-74924.139704
2265.952639,1184.329507,17912.983796,-71246.881314
2265.955186,1924.535449,17172.777854,-69714.690318
2265.957734,592.164754,10362.883188,-75690.235202
2265.960281,148.041188,-1036.288319,-79061.055394
2265.962829,296.082377,1332.370696,-70940.443115
2265.965376,148.041188,0.000000,-69561.471218
2265.967924,740.205942,-16284.530724,-77988.521696
2265.970471,2220.617826,19689.478057,-70634.004916
2265.973019,1776.494261,19393.395680,-73545.167808
2265.975566,-1776.494261,-12435.459826,-78907.836294
2265.978114,1628.453072,21021.848753,-71859.757712
2265.980661,-296.082377,7550.100608,-72625.853210
2265.983209,444.123565,22206.178260,-70787.224015
2265.985756,-1776.494261,7550.100608,-76609.549800
2265.988308,-1776.494261,17320.819043,-72625.853210
2265.990860,2516.700203,-6957.935855,-73391.948708
2265.993412,888.247130,-13175.665768,-74924.139704
2265.995963,296.082377,-1628.453072,-70021.128517
2265.998515,-592.164754,-18505.148550,-76762.768900
2266.001067,740.205942,-13175.665768,-74770.920605
2266.003619,-148.041188,-11695.253884,-72779.072310
2266.006170,1332.370696,-296.082377,-71246.881314
2266.008722,2220.617826,-4589.276840,-75843.454302
2266.011274,3404.947333,6365.771101,-73851.606007
2266.013825,888.247130,-5033.400406,-75077.358804
2266.016377,148.041188,-6809.894666,-72166.195912
2266.018929,444.123565,-2368.659014,-73698.386908
2266.021481,0.000000,-1628.453072,-72319.415011
2266.024032,1628.453072,-3997.112087,-74617.701505
2266.026584,2072.576638,-15544.324782,-74004.825107
2266.029136,444.123565,-13471.748144,-73085.510509
2266.031688,592.164754,-15988.448347,-73085.510509
2266.034239,-740.205942,-13767.830521,-75077.358804
2266.036791,-1184.329507,2960.823768,-73391.948708
2266.039343,-1332.370696,16432.571912,-74464.482406
2266.041894,1036.288319,9178.553681,-74770.920605
2266.044446,2072.576638,20429.683999,-71246.881314
2266.046998,1480.411884,16432.571912,-70787.224015
2266.049550,1184.329507,11547.212695,-76149.892501
2266.052101,0.000000,-2072.576638,-76762.768900
2266.054653,-296.082377,5329.482782,-71400.100414
2266.057205,-1628.453072,-4885.359217,-71400.100414
2266.059757,740.205942,6809.894666,-72625.853210
2266.062308,1480.411884,-1628.453072,-76149.892501
2266.064860,-296.082377,5181.441594,-74924.139704
2266.067412,-740.205942,7402.059420,-74464.482406
2266.069963,-740.205942,4145.153275,-73851.606007
2266.072515,296.082377,19985.560434,-70787.224015
2266.075067,-1332.370696,10066.800811,-77528.864398
2266.077619,1036.288319,17764.942608,-73545.167808
2266.080170,592.164754,9178.553681,-70787.224015
2266.082722,3701.029710,5181.441594,-71706.538613
2266.085274,1036.288319,-15248.242405,-74617.701505
2266.087826,-148.041188,-8142.265362,-72166.195912
2266.090380,-296.082377,-13323.706956,-74617.701505
2266.092935,-888.247130,-16284.530724,-75383.797003
2266.095490,2812.782580,-11843.295072,-71859.757712
2266.098045,592.164754,-3256.906145,-70940.443115
2266.100599,2960.823768,2812.782580,-75996.673402
2266.103154,592.164754,1184.329507,-77375.645298
2266.105709,888.247130,-2960.823768,-72932.291410
2266.108264,0.000000,4293.194464,-69714.690318
2266.110818,740.205942,1776.494261,-72472.634111
2266.113373,-148.041188,-6069.688724,-74004.825107
2266.115928,1924.535449,-4737.318029,-74311.263306
2266.118483,296.082377,-14508.036463,-75230.577904
2266.121037,-888.247130,-16284.530724,-71093.662214
2266.123592,296.082377,-13471.748144,-73085.510509
2266.126147,-2368.659014,-11547.212695,-74617.701505
2266.128701,-592.164754,6069.688724,-76609.549800
2266.131256,-1184.329507,10955.047942,-75843.454302
2266.133811,1776.494261,14211.954086,-72932.291410
2266.136366,296.082377,18949.272115,-69867.909418
