#time,accel_x,accel_y,accel_z
2113.332017,-1332.370696,1036.288319,-74004.825107
2113.334468,-444.123565,1776.494261,-73238.729609
2113.336920,0.000000,1184.329507,-73238.729609
2113.339372,444.123565,592.164754,-74158.044206
2113.341823,1628.453072,888.247130,-73545.167808
2113.344275,2072.576638,2220.617826,-73545.167808
2113.346727,-1036.288319,0.000000,-74617.701505
2113.349179,-1184.329507,1036.288319,-74004.825107
2113.351630,-1480.411884,888.247130,-72932.291410
2113.354082,4737.318029,1776.494261,-73085.510509
2113.356534,-740.205942,148.041188,-74004.825107
2113.358986,15100.201217,1924.535449,-72932.291410
2113.361437,12139.377449,-592.164754,-74158.044206
2113.363889,8882.471304,1924.535449,-74464.482406
2113.366341,5921.647536,-592.164754,-75383.797003
2113.368857,296.082377,2072.576638,-71859.757712
2113.371374,888.247130,1776.494261,-73391.948708
2113.373890,3404.947333,444.123565,-74004.825107
2113.376407,592.164754,1480.411884,-73238.729609
2113.378923,2812.782580,1776.494261,-73085.510509
2113.381439,296.082377,1628.453072,-74311.263306
2113.383956,3404.947333,-296.082377,-74158.044206
2113.386472,2960.823768,592.164754,-72625.853210
2113.388989,-2960.823768,888.247130,-73391.948708
2113.391505,-5033.400406,740.205942,-74617.701505
2113.394022,-11399.171507,888.247130,-73391.948708
2113.396538,-5773.606348,2516.700203,-73851.606007
2113.399055,1036.288319,-592.164754,-73851.606007
2113.401571,444.123565,1776.494261,-73391.948708
2113.404088,148.041188,888.247130,-73698.386908
2113.406604,-12731.542202,1036.288319,-74158.044206
2113.409121,-8290.306550,1924.535449,-74617.701505
2113.411637,-12287.418637,1924.535449,-71706.538613
2113.414153,-4885.359217,2516.700203,-72779.072310
2113.416670,5921.647536,1184.329507,-73698.386908
2113.419186,-3404.947333,2072.576638,-73698.386908
2113.421703,148.041188,1036.288319,-73851.606007
2113.424219,-3997.112087,148.041188,-73391.948708
2113.426736,-4737.318029,0.000000,-75077.358804
2113.429252,1480.411884,2664.741391,-71553.319513
2113.431769,148.041188,1184.329507,-73391.948708
2113.434285,444.123565,0.000000,-72625.853210
2113.436802,-2960.823768,3997.112087,-72779.072310
2113.439318,-2072.576638,-148.041188,-73698.386908
2113.441835,-1776.494261,2960.823768,-72319.415011
2113.444351,-8586.388927,-740.205942,-74004.825107
2113.446868,-7402.059420,2516.700203,-73238.729609
2113.449384,-1628.453072,1184.329507,-73238.729609
2113.451900,6513.812290,2220.617826,-74924.139704
2113.454417,9918.759623,-148.041188,-74004.825107
2113.456933,3849.070898,148.041188,-74311.263306
2113.459450,-11547.212695,2368.659014,-72932.291410
2113.461966,-22206.178260,1332.370696,-74158.044206
2113.464483,-5773.606348,1628.453072,-72472.634111
2113.466999,15544.324782,2072.576638,-72932.291410
2113.469429,20577.725188,592.164754,-73698.386908
2113.471858,8734.430116,0.000000,-74924.139704
2113.474287,-4885.359217,592.164754,-73391.948708
2113.476717,-6661.853478,1332.370696,-73238.729609
2113.479146,1332.370696,444.123565,-74311.263306
2113.481575,5033.400406,1776.494261,-72166.195912
2113.484005,7846.182985,-296.082377,-73391.948708
2113.486434,1628.453072,1776.494261,-74924.139704
2113.488864,-3256.906145,296.082377,-75230.577904
2113.491293,888.247130,1776.494261,-73238.729609
2113.493722,7550.100608,888.247130,-72472.634111
2113.496152,7550.100608,0.000000,-73545.167808
2113.498581,8586.388927,-444.123565,-74158.044206
2113.501010,5033.400406,4441.235652,-72779.072310
2113.503440,-3552.988522,148.041188,-74311.263306
2113.505869,0.000000,1480.411884,-73238.729609
2113.508299,2368.659014,-148.041188,-72166.195912
2113.510728,4145.153275,296.082377,-75077.358804
2113.513157,13619.789333,1776.494261,-74464.482406
2113.515587,-13619.789333,-1924.535449,-73851.606007
2113.518016,10658.965565,4293.194464,-73545.167808
2113.520445,8586.388927,888.247130,-73851.606007
2113.522875,-2960.823768,-148.041188,-74770.920605
2113.525304,7994.224174,2960.823768,-70174.347617
2113.527734,-444.123565,-592.164754,-75537.016103
2113.530163,2368.659014,1776.494261,-77069.207099
2113.532592,5181.441594,2072.576638,-73085.510509
2113.535022,-148.041188,0.000000,-72779.072310
2113.537451,11547.212695,740.205942,-71859.757712
2113.539880,7994.224174,2516.700203,-74617.701505
2113.542310,8290.306550,740.205942,-74158.044206
2113.544739,-1480.411884,1628.453072,-74464.482406
2113.547168,-8438.347739,-148.041188,-75843.454302
2113.549598,-6217.729913,1628.453072,-73391.948708
2113.552027,12879.583391,888.247130,-72625.853210
2113.554457,22798.343014,444.123565,-74464.482406
2113.556886,12731.542202,1924.535449,-72779.072310
2113.559315,-10066.800811,888.247130,-74770.920605
2113.561745,-20725.766376,2072.576638,-74311.263306
2113.564174,-13471.748144,-296.082377,-74924.139704
2113.566671,-148.041188,888.247130,-71859.757712
2113.569168,7402.059420,148.041188,-71706.538613
2113.571664,2368.659014,2368.659014,-74158.044206
2113.574161,-6513.812290,2220.617826,-75383.797003
2113.576658,-6365.771101,148.041188,-73698.386908
2113.579154,-3108.864956,1332.370696,-73238.729609
2113.581651,296.082377,148.041188,-73238.729609
2113.584148,-740.205942,740.205942,-74158.044206
2113.586645,-6365.771101,2368.659014,-73391.948708
2113.589141,-7105.977043,3256.906145,-74617.701505
2113.591638,-6217.729913,-1184.329507,-73698.386908
2113.594135,740.205942,2368.659014,-72012.976812
2113.596632,740.205942,-296.082377,-73698.386908
2113.599128,592.164754,444.123565,-74158.044206
2113.601625,-3108.864956,2220.617826,-73391.948708
2113.604122,-5477.523971,2368.659014,-74464.482406
2113.606618,296.082377,1480.411884,-72932.291410
2113.609115,4293.194464,444.123565,-73238.729609
2113.611612,-296.082377,740.205942,-72319.415011
2113.614109,-444.123565,888.247130,-73698.386908
2113.616605,-8734.430116,1480.411884,-74770.920605
2113.619102,-9918.759623,1184.329507,-74770.920605
2113.621599,-5181.441594,740.205942,-72625.853210
2113.624096,740.205942,1480.411884,-73545.167808
2113.626592,0.000000,1924.535449,-72319.415011
2113.629089,-2664.741391,-296.082377,-74158.044206
2113.631586,-5329.482782,2664.741391,-74311.263306
2113.634082,-7846.182985,444.123565,-75230.577904
2113.636579,-6069.688724,1776.494261,-73851.606007
2113.639076,2220.617826,-296.082377,-72319.415011
2113.641573,7846.182985,2072.576638,-73238.729609
2113.644069,2516.700203,-592.164754,-74004.825107
2113.646566,-11695.253884,888.247130,-74004.825107
2113.649063,-18949.272115,1776.494261,-73851.606007
2113.651560,-8438.347739,592.164754,-75077.358804
2113.654056,10658.965565,1184.329507,-72166.195912
2113.656553,19837.519246,1332.370696,-72319.415011
2113.659050,7698.141797,-444.123565,-73085.510509
2113.661546,-3552.988522,1184.329507,-74924.139704
2113.664043,-2220.617826,2368.659014,-74464.482406
2113.666586,1184.329507,1628.453072,-73698.386908
2113.669129,8142.265362,148.041188,-72779.072310
2113.671673,4293.194464,-888.247130,-73085.510509
2113.674216,-592.164754,3849.070898,-72012.976812
2113.676759,-3108.864956,888.247130,-75077.358804
2113.679302,-1480.411884,1628.453072,-74464.482406
2113.681845,9030.512492,888.247130,-73085.510509
2113.684388,17320.819043,1332.370696,-72472.634111
2113.686931,9770.718434,888.247130,-73545.167808
2113.689474,3997.112087,888.247130,-75077.358804
2113.692017,-4737.318029,1776.494261,-73391.948708
2113.694561,-1184.329507,2664.741391,-73545.167808
2113.697104,-148.041188,592.164754,-73391.948708
2113.699647,13915.871710,888.247130,-72166.195912
2113.702190,3256.906145,1480.411884,-72012.976812
2113.704733,-15100.201217,444.123565,-74158.044206
2113.707276,2812.782580,2664.741391,-75383.797003
2113.709819,4737.318029,1776.494261,-72779.072310
2113.712362,10658.965565,1628.453072,-73545.167808
2113.714906,18949.272115,444.123565,-73085.510509
2113.717449,444.123565,2812.782580,-70327.566716
2113.719992,-2664.741391,444.123565,-75230.577904
2113.722535,3108.864956,2368.659014,-74004.825107
2113.725078,1332.370696,148.041188,-74617.701505
2113.727621,8142.265362,1332.370696,-70634.004916
2113.730164,3997.112087,2516.700203,-73391.948708
2113.732707,-592.164754,296.082377,-73545.167808
2113.735250,-3997.112087,1184.329507,-73545.167808
2113.737794,2664.741391,888.247130,-74311.263306
2113.740337,14656.077652,148.041188,-74311.263306
2113.742880,14508.036463,592.164754,-72779.072310
2113.745423,2072.576638,1924.535449,-73085.510509
2113.747966,-14804.118840,2664.741391,-73698.386908
2113.750509,-12435.459826,592.164754,-74464.482406
2113.753052,-1184.329507,592.164754,-72625.853210
2113.755595,4441.235652,740.205942,-73851.606007
2113.758138,3997.112087,1184.329507,-74617.701505
2113.760682,-7550.100608,1628.453072,-73851.606007
2113.763225,-5625.565159,1332.370696,-72625.853210
2113.765768,296.082377,1924.535449,-72472.634111
2113.768340,1924.535449,1332.370696,-73698.386908
2113.770912,3108.864956,1036.288319,-74158.044206
2113.773484,-6217.729913,1480.411884,-74158.044206
2113.776056,-8142.265362,1628.453072,-74311.263306
2113.778628,-13767.830521,1332.370696,-72166.195912
2113.781200,-8586.388927,1480.411884,-71859.757712
2113.783772,-4885.359217,2812.782580,-73085.510509
2113.786344,3552.988522,592.164754,-76149.892501
2113.788916,-4145.153275,2220.617826,-74158.044206
2113.791488,296.082377,740.205942,-74311.263306
2113.794061,-13471.748144,-888.247130,-73391.948708
2113.796633,740.205942,1776.494261,-72625.853210
2113.799205,3108.864956,2072.576638,-72625.853210
2113.801777,-4293.194464,1184.329507,-73698.386908
2113.804349,2220.617826,1332.370696,-73698.386908
2113.806921,-19837.519246,1628.453072,-72932.291410
2113.809493,-1924.535449,1776.494261,-74158.044206
2113.812065,888.247130,1332.370696,-74924.139704
2113.814637,-7994.224174,592.164754,-74311.263306
2113.817209,148.041188,1924.535449,-72319.415011
2113.819781,-4737.318029,2516.700203,-73238.729609
2113.822353,-3404.947333,1036.288319,-74158.044206
2113.824925,2220.617826,1036.288319,-73391.948708
2113.827497,6661.853478,296.082377,-73851.606007
2113.830069,2516.700203,2072.576638,-74004.825107
2113.832642,-8586.388927,1036.288319,-74004.825107
2113.835214,-16432.571912,2220.617826,-72472.634111
2113.837786,-3849.070898,1036.288319,-73851.606007
2113.840358,10214.842000,740.205942,-74464.482406
2113.842930,21465.972318,1480.411884,-72625.853210
2113.845502,7846.182985,592.164754,-74004.825107
2113.848074,-3701.029710,1480.411884,-75230.577904
2113.850646,-7105.977043,592.164754,-74158.044206
2113.853218,-148.041188,1776.494261,-72932.291410
2113.855790,10807.006753,-296.082377,-73391.948708
2113.858362,5625.565159,444.123565,-73391.948708
2113.860934,740.205942,2072.576638,-73391.948708
2113.863506,-5033.400406,888.247130,-74311.263306
2113.866078,-1480.411884,740.205942,-75690.235202
2113.868650,6365.771101,1332.370696,-73085.510509
2113.871150,14508.036463,444.123565,-72625.853210
2113.873650,11399.171507,1480.411884,-72932.291410
2113.876150,-2072.576638,1924.535449,-75077.358804
2113.878650,-4589.276840,1924.535449,-73698.386908
2113.881150,-1924.535449,2812.782580,-74158.044206
2113.883650,4145.153275,592.164754,-75996.673402
2113.886150,7846.182985,1480.411884,-73238.729609
2113.888650,-3849.070898,1036.288319,-72319.415011
2113.891150,-444.123565,2368.659014,-73545.167808
2113.893650,5625.565159,592.164754,-74770.920605
2113.896150,-1628.453072,1036.288319,-73545.167808
2113.898650,15692.365970,2368.659014,-72472.634111
2113.901150,10510.924376,0.000000,-73851.606007
2113.903650,2072.576638,1628.453072,-73085.510509
2113.906150,3256.906145,1628.453072,-72472.634111
2113.908650,4589.276840,2072.576638,-73698.386908
2113.911150,3108.864956,-148.041188,-74924.139704
2113.913650,3108.864956,1036.288319,-72625.853210
2113.916150,-444.123565,592.164754,-73391.948708
2113.918649,888.247130,2368.659014,-73851.606007
2113.921149,3404.947333,-296.082377,-74924.139704
2113.923649,12287.418637,1480.411884,-72319.415011
2113.926149,14656.077652,444.123565,-73851.606007
2113.928649,-148.041188,1332.370696,-74617.701505
2113.931149,-14804.118840,1776.494261,-73851.606007
2113.933649,-10955.047942,740.205942,-73391.948708
2113.936149,-1628.453072,2072.576638,-73851.606007
2113.938649,7254.018232,148.041188,-73851.606007
2113.941149,1924.535449,1332.370696,-74464.482406
2113.943649,-7698.141797,1184.329507,-74158.044206
2113.946149,-9178.553681,1332.370696,-74004.825107
2113.948649,-5181.441594,592.164754,-73238.729609
2113.951149,4737.318029,1628.453072,-72625.853210
2113.953649,2220.617826,444.123565,-75690.235202
2113.956149,-5625.565159,2516.700203,-75077.358804
2113.958649,-8438.347739,1480.411884,-72472.634111
2113.961149,-13619.789333,1924.535449,-72625.853210
2113.963649,-7550.100608,-296.082377,-72472.634111
2113.966149,5033.400406,2368.659014,-73085.510509
2113.968648,2664.741391,1332.370696,-72472.634111
2113.971187,-2664.741391,2368.659014,-74464.482406
2113.973726,-1036.288319,2368.659014,-75077.358804
2113.976264,148.041188,1036.288319,-72932.291410
2113.978803,-2812.782580,740.205942,-74311.263306
2113.981341,4737.318029,-148.041188,-73085.510509
2113.983880,-4441.235652,2220.617826,-72319.415011
2113.986419,-5921.647536,2072.576638,-75230.577904
2113.988957,444.123565,4885.359217,-73545.167808
2113.991496,-7846.182985,-592.164754,-71553.319513
2113.994034,-1184.329507,740.205942,-74617.701505
2113.996573,-2516.700203,888.247130,-73851.606007
2113.999111,-4737.318029,1184.329507,-75383.797003
2114.001650,-2516.700203,740.205942,-74617.701505
2114.004189,2960.823768,2960.823768,-72932.291410
2114.006727,3849.070898,1036.288319,-72779.072310
2114.009266,740.205942,-296.082377,-74464.482406
2114.011804,-12731.542202,888.247130,-73085.510509
2114.014343,-15544.324782,888.247130,-73698.386908
2114.016882,-8290.306550,888.247130,-74464.482406
2114.019420,7846.182985,1776.494261,-73545.167808
2114.021959,19097.313304,888.247130,-73085.510509
2114.024497,5033.400406,148.041188,-74004.825107
2114.027036,-4293.194464,592.164754,-74004.825107
2114.029574,-444.123565,1776.494261,-73391.948708
2114.032113,4885.359217,888.247130,-75077.358804
2114.034652,8734.430116,0.000000,-74311.263306
2114.037190,5329.482782,1480.411884,-72472.634111
2114.039729,-296.082377,888.247130,-72319.415011
2114.042267,-3997.112087,3108.864956,-73085.510509
2114.044806,-296.082377,1332.370696,-74770.920605
2114.047345,10658.965565,1332.370696,-73085.510509
2114.049883,15692.365970,592.164754,-73391.948708
2114.052422,15396.283594,-888.247130,-75077.358804
2114.054960,-1332.370696,2960.823768,-73238.729609
2114.057499,-7698.141797,740.205942,-73085.510509
2114.060037,7254.018232,2072.576638,-74617.701505
2114.062576,2516.700203,1036.288319,-73391.948708
2114.065115,5625.565159,-296.082377,-73238.729609
2114.067653,2812.782580,2072.576638,-73851.606007
2114.070192,-7698.141797,0.000000,-73851.606007
2114.072758,-1184.329507,2220.617826,-74770.920605
2114.075325,18357.107362,1924.535449,-73545.167808
2114.077891,9474.636058,2220.617826,-71706.538613
2114.080458,10807.006753,296.082377,-73698.386908
2114.083024,5625.565159,740.205942,-73851.606007
2114.085591,-296.082377,1036.288319,-75230.577904
2114.088157,296.082377,1332.370696,-73545.167808
2114.090724,-4737.318029,444.123565,-74158.044206
2114.093290,1628.453072,1480.411884,-72319.415011
2114.095857,6365.771101,2960.823768,-74158.044206
2114.098423,11251.130318,148.041188,-75077.358804
2114.100990,14656.077652,1628.453072,-72472.634111
2114.103556,9622.677246,1480.411884,-73698.386908
2114.106123,-7846.182985,1628.453072,-75383.797003
2114.108689,-18653.189738,1036.288319,-74158.044206
2114.111255,-7698.141797,1924.535449,-71400.100414
2114.113822,1924.535449,740.205942,-71859.757712
2114.116388,8290.306550,888.247130,-74464.482406
2114.118955,-6069.688724,3404.947333,-74311.263306
2114.121521,-11103.089130,1628.453072,-73391.948708
2114.124088,-6957.935855,1184.329507,-73545.167808
2114.126654,4293.194464,-1184.329507,-71859.757712
2114.129221,7254.018232,3552.988522,-71859.757712
2114.131787,3849.070898,444.123565,-75996.673402
2114.134354,-6069.688724,3404.947333,-74924.139704
2114.136920,-12139.377449,-444.123565,-74311.263306
2114.139487,-3108.864956,888.247130,-73085.510509
2114.142053,-3701.029710,-148.041188,-72166.195912
2114.144620,6809.894666,1332.370696,-73238.729609
2114.147186,-2220.617826,2368.659014,-73545.167808
2114.149753,740.205942,2220.617826,-76915.987999
2114.152319,-4737.318029,1924.535449,-74158.044206
2114.154886,-2072.576638,-296.082377,-71706.538613
2114.157452,4293.194464,-740.205942,-72932.291410
2114.160019,-9622.677246,888.247130,-74158.044206
2114.162585,-10658.965565,2960.823768,-74770.920605
2114.165152,-3108.864956,3404.947333,-72625.853210
2114.167718,-4441.235652,1776.494261,-75230.577904
2114.170285,-3552.988522,-444.123565,-72779.072310
2114.172851,-3552.988522,148.041188,-71859.757712
2114.175438,-2960.823768,1480.411884,-74311.263306
2114.178024,-740.205942,592.164754,-75690.235202
2114.180610,888.247130,1776.494261,-73698.386908
2114.183197,-148.041188,1628.453072,-73238.729609
2114.185783,-4589.276840,1480.411884,-72932.291410
2114.188369,-15100.201217,0.000000,-73851.606007
2114.190955,-8438.347739,1480.411884,-72779.072310
2114.193541,7698.141797,2072.576638,-74158.044206
2114.196128,15396.283594,296.082377,-73851.606007
2114.198714,7402.059420,1628.453072,-73851.606007
2114.201300,-2072.576638,1924.535449,-73545.167808
2114.203886,-3552.988522,888.247130,-72625.853210
2114.206473,1776.494261,1184.329507,-73851.606007
2114.209059,12435.459826,148.041188,-73851.606007
2114.211645,9474.636058,2664.741391,-74004.825107
2114.214231,1776.494261,-740.205942,-74617.701505
2114.216818,-4885.359217,2960.823768,-73085.510509
2114.219404,-2368.659014,740.205942,-73085.510509
2114.221990,6809.894666,1628.453072,-73545.167808
2114.224576,18653.189738,1184.329507,-73698.386908
2114.227162,21021.848753,-444.123565,-74311.263306
2114.229749,2812.782580,1924.535449,-74464.482406
2114.232335,-9622.677246,296.082377,-75537.016103
2114.234921,0.000000,1036.288319,-73545.167808
2114.237507,-148.041188,1628.453072,-71859.757712
2114.240094,3552.988522,2220.617826,-74770.920605
2114.242680,3701.029710,0.000000,-73851.606007
2114.245266,3256.906145,1776.494261,-73851.606007
2114.247852,-5033.400406,888.247130,-73238.729609
2114.250439,5477.523971,1184.329507,-74770.920605
2114.253025,8438.347739,296.082377,-72472.634111
2114.255611,6513.812290,1628.453072,-71400.100414
2114.258197,5329.482782,2516.700203,-73698.386908
2114.260783,1184.329507,2812.782580,-74770.920605
2114.263370,-3404.947333,2072.576638,-73238.729609
2114.265956,-1480.411884,-444.123565,-74004.825107
2114.268542,-740.205942,740.205942,-72779.072310
2114.271128,7550.100608,296.082377,-73238.729609
2114.273715,14952.160028,2664.741391,-73238.729609
2114.276301,16432.571912,1332.370696,-73391.948708
2114.278899,1628.453072,1628.453072,-74311.263306
2114.281498,-11991.336260,1924.535449,-73238.729609
2114.284096,-13915.871710,740.205942,-74158.044206
2114.286694,-2368.659014,-296.082377,-72625.853210
2114.289293,7402.059420,1332.370696,-72932.291410
2114.291891,1776.494261,2960.823768,-73238.729609
2114.294489,-7994.224174,1776.494261,-74924.139704
2114.297088,-8586.388927,1184.329507,-73698.386908
2114.299686,-4145.153275,1036.288319,-72319.415011
2114.302285,4589.276840,444.123565,-72012.976812
2114.304883,4885.359217,1332.370696,-74924.139704
2114.307481,-1480.411884,1332.370696,-75690.235202
2114.310080,-12139.377449,2812.782580,-74464.482406
2114.312678,-5477.523971,1776.494261,-73698.386908
2114.315276,-740.205942,-592.164754,-73085.510509
2114.317875,1776.494261,1332.370696,-71553.319513
2114.320473,592.164754,1924.535449,-74464.482406
2114.323072,592.164754,2516.700203,-76149.892501
2114.325670,-6217.729913,1924.535449,-73851.606007
2114.328268,-8438.347739,740.205942,-71859.757712
2114.330867,2516.700203,2220.617826,-72779.072310
2114.333465,-2368.659014,-296.082377,-72166.195912
2114.336063,2220.617826,2220.617826,-73238.729609
2114.338662,-5921.647536,2368.659014,-75383.797003
2114.341260,-12435.459826,1036.288319,-74464.482406
2114.343859,-7846.182985,296.082377,-73085.510509
2114.346457,-1332.370696,2072.576638,-70634.004916
2114.349055,296.082377,296.082377,-72932.291410
2114.351654,4589.276840,888.247130,-73085.510509
2114.354252,3404.947333,2516.700203,-74924.139704
2114.356850,-3256.906145,1332.370696,-74770.920605
2114.359449,-9770.718434,1776.494261,-74004.825107
2114.362047,-16876.695478,888.247130,-72779.072310
2114.364646,0.000000,1036.288319,-71859.757712
2114.367244,15396.283594,2664.741391,-73085.510509
2114.369842,16876.695478,1924.535449,-75077.358804
2114.372441,4589.276840,592.164754,-74770.920605
2114.375039,-4885.359217,2220.617826,-74158.044206
2114.377637,-3552.988522,1332.370696,-73698.386908
2114.380236,4589.276840,1628.453072,-73238.729609
2114.382772,10362.883188,888.247130,-72625.853210
2114.385309,9622.677246,296.082377,-74770.920605
2114.387845,-1036.288319,1776.494261,-74617.701505
2114.390382,-4589.276840,1184.329507,-73698.386908
2114.392918,-2368.659014,296.082377,-73238.729609
2114.395455,5625.565159,296.082377,-73238.729609
2114.397991,13619.789333,740.205942,-72932.291410
2114.400528,3256.906145,592.164754,-73851.606007
2114.403064,-6513.812290,3997.112087,-74924.139704
2114.405601,-148.041188,592.164754,-74464.482406
2114.408137,2368.659014,1036.288319,-73238.729609
2114.410674,-296.082377,0.000000,-72472.634111
2114.413210,4441.235652,0.000000,-73238.729609
2114.415747,-5625.565159,888.247130,-75077.358804
2114.418283,5773.606348,1924.535449,-74924.139704
2114.420820,18357.107362,592.164754,-73698.386908
2114.423356,6513.812290,148.041188,-73085.510509
2114.425893,14952.160028,1628.453072,-72779.072310
2114.428429,4145.153275,1184.329507,-72779.072310
2114.430966,1036.288319,1480.411884,-75077.358804
2114.433502,-5329.482782,1036.288319,-74617.701505
2114.436039,-1332.370696,2664.741391,-71859.757712
2114.438575,5033.400406,-148.041188,-73085.510509
2114.441112,14359.995275,888.247130,-73391.948708
2114.443648,16284.530724,-740.205942,-72932.291410
2114.446185,13323.706956,4589.276840,-72472.634111
2114.448721,-6513.812290,296.082377,-76456.330700
2114.451257,-16580.613101,1628.453072,-75383.797003
2114.453794,-10955.047942,-296.082377,-72625.853210
2114.456330,6069.688724,1036.288319,-71246.881314
2114.458867,6809.894666,296.082377,-73851.606007
2114.461403,148.041188,3108.864956,-74770.920605
2114.463940,-12879.583391,3108.864956,-75230.577904
2114.466476,-9030.512492,0.000000,-75537.016103
2114.469013,-2960.823768,592.164754,-72012.976812
2114.471549,5181.441594,444.123565,-72012.976812
2114.474086,3849.070898,592.164754,-72932.291410
2114.476622,-2960.823768,1332.370696,-75537.016103
2114.479159,-14063.912898,3404.947333,-73238.729609
2114.481695,-13767.830521,888.247130,-73238.729609
2114.484254,-4293.194464,-2072.576638,-74158.044206
2114.486813,148.041188,2516.700203,-72932.291410
2114.489372,6661.853478,888.247130,-72472.634111
2114.491931,-11251.130318,1776.494261,-74158.044206
2114.494490,-5921.647536,1924.535449,-75537.016103
2114.497049,6217.729913,2812.782580,-73085.510509
2114.499608,-12435.459826,-740.205942,-73238.729609
2114.502167,3108.864956,2072.576638,-72166.195912
2114.504726,-7994.224174,-296.082377,-72319.415011
2114.507285,-13471.748144,592.164754,-76915.987999
2114.509844,-444.123565,3256.906145,-73851.606007
2114.512403,-2368.659014,592.164754,-74770.920605
2114.514962,5477.523971,-1480.411884,-71859.757712
2114.517521,6365.771101,3404.947333,-72012.976812
2114.520080,1036.288319,592.164754,-74924.139704
2114.522639,-5033.400406,888.247130,-74617.701505
2114.525198,-18357.107362,2960.823768,-74158.044206
2114.527757,-11843.295072,1332.370696,-73238.729609
2114.530315,6661.853478,-148.041188,-73545.167808
2114.532874,18653.189738,1776.494261,-72932.291410
2114.535433,16728.654289,2516.700203,-72012.976812
2114.537992,-5625.565159,0.000000,-76456.330700
2114.540551,-10362.883188,1628.453072,-73851.606007
2114.543110,888.247130,2072.576638,-72779.072310
2114.545669,11547.212695,444.123565,-72319.415011
2114.548228,13323.706956,1924.535449,-72932.291410
2114.550787,3997.112087,444.123565,-73851.606007
2114.553346,-8734.430116,2072.576638,-75383.797003
2114.555905,-8438.347739,148.041188,-75383.797003
2114.558464,1924.535449,1776.494261,-73391.948708
2114.561023,15248.242405,-888.247130,-71093.662214
2114.563582,14359.995275,1776.494261,-72472.634111
2114.566157,4293.194464,-444.123565,-75230.577904
2114.568732,-5477.523971,4589.276840,-75077.358804
2114.571306,1628.453072,1924.535449,-73238.729609
2114.573881,3997.112087,1332.370696,-74004.825107
2114.576456,1480.411884,1480.411884,-71553.319513
2114.579031,4145.153275,444.123565,-72012.976812
2114.581606,5033.400406,1036.288319,-75077.358804
2114.584181,4885.359217,2664.741391,-75383.797003
2114.586756,15100.201217,1628.453072,-73545.167808
2114.589331,9178.553681,1480.411884,-73851.606007
2114.591905,4145.153275,-296.082377,-73391.948708
2114.594480,-3404.947333,296.082377,-72779.072310
2114.597055,-6069.688724,296.082377,-73851.606007
2114.599630,1184.329507,2960.823768,-75077.358804
2114.602205,11547.212695,1332.370696,-74617.701505
2114.604780,15544.324782,-444.123565,-72779.072310
2114.607355,17616.901420,592.164754,-73085.510509
2114.609929,3404.947333,444.123565,-73085.510509
2114.612504,-15396.283594,2220.617826,-74004.825107
2114.615079,-20133.601622,1628.453072,-73085.510509
2114.617654,-3701.029710,1184.329507,-73851.606007
2114.620229,5329.482782,148.041188,-72932.291410
2114.622804,8734.430116,888.247130,-73238.729609
2114.625379,-5329.482782,2368.659014,-74004.825107
2114.627953,-17172.777854,1628.453072,-75690.235202
2114.630528,-10658.965565,888.247130,-73851.606007
2114.633103,1480.411884,888.247130,-72319.415011
2114.635678,6513.812290,1776.494261,-72166.195912
2114.638253,6069.688724,-148.041188,-75230.577904
2114.640828,-6217.729913,1924.535449,-72779.072310
2114.643403,-11399.171507,3256.906145,-73391.948708
2114.645978,-6069.688724,888.247130,-74617.701505
2114.648552,5921.647536,1480.411884,-74924.139704
2114.651127,296.082377,2516.700203,-71246.881314
2114.653702,2812.782580,888.247130,-73391.948708
2114.656277,-4145.153275,592.164754,-73851.606007
2114.658852,-7698.141797,2960.823768,-74770.920605
2114.661427,8586.388927,740.205942,-72932.291410
2114.664002,-3701.029710,1036.288319,-75230.577904
2114.666576,-3997.112087,592.164754,-72932.291410
2114.669163,-12731.542202,-888.247130,-73238.729609
2114.671749,-7105.977043,1036.288319,-74770.920605
2114.674335,1628.453072,1628.453072,-74924.139704
2114.676921,4441.235652,740.205942,-73698.386908
2114.679507,7402.059420,1036.288319,-72779.072310
2114.682093,-1332.370696,1332.370696,-73238.729609
2114.684679,-10510.924376,1480.411884,-74617.701505
2114.687265,-17616.901420,1184.329507,-73238.729609
2114.689852,-15988.448347,1628.453072,-74158.044206
2114.692438,4737.318029,444.123565,-74158.044206
2114.695024,20725.766376,740.205942,-73238.729609
2114.697610,11843.295072,1332.370696,-73545.167808
2114.700196,-2072.576638,592.164754,-74311.263306
2114.702782,-11991.336260,444.123565,-74311.263306
2114.705368,-592.164754,1776.494261,-72472.634111
2114.707954,9918.759623,888.247130,-73085.510509
2114.710540,11991.336260,1924.535449,-72625.853210
2114.713127,8142.265362,296.082377,-72779.072310
2114.715713,-3256.906145,2812.782580,-72779.072310
2114.718299,-3701.029710,1332.370696,-75383.797003
2114.720885,2664.741391,888.247130,-74004.825107
2114.723471,17172.777854,148.041188,-72625.853210
2114.726057,13471.748144,1924.535449,-73545.167808
2114.728643,2368.659014,0.000000,-74464.482406
2114.731229,1184.329507,2516.700203,-74158.044206
2114.733815,-2072.576638,1480.411884,-73391.948708
2114.736402,1924.535449,1332.370696,-73238.729609
2114.738988,3108.864956,740.205942,-73545.167808
2114.741574,7402.059420,1332.370696,-73698.386908
2114.744160,7550.100608,2220.617826,-74004.825107
2114.746746,9474.636058,1628.453072,-74311.263306
2114.749332,7698.141797,1776.494261,-71246.881314
2114.751918,8586.388927,1628.453072,-75077.358804
2114.754504,2368.659014,1628.453072,-74924.139704
2114.757091,-1480.411884,-888.247130,-74004.825107
2114.759677,-2812.782580,2072.576638,-71706.538613
2114.762263,-148.041188,592.164754,-75077.358804
2114.764849,11251.130318,1036.288319,-75690.235202
2114.767435,14211.954086,1332.370696,-74311.263306
2114.770021,8734.430116,740.205942,-73545.167808
2114.772616,-8882.471304,2516.700203,-73851.606007
2114.775210,-19689.478057,740.205942,-74311.263306
2114.777805,-7550.100608,444.123565,-73085.510509
2114.780399,1924.535449,592.164754,-73085.510509
2114.782994,5477.523971,444.123565,-74004.825107
2114.785589,-1036.288319,2664.741391,-73851.606007
2114.788183,-11251.130318,1480.411884,-74158.044206
2114.790778,-7698.141797,2516.700203,-73851.606007
2114.793372,-1184.329507,740.205942,-73545.167808
2114.795967,4441.235652,2516.700203,-72472.634111
2114.798561,3701.029710,1628.453072,-74770.920605
2114.801156,-3701.029710,740.205942,-75690.235202
2114.803751,-3849.070898,1628.453072,-72472.634111
2114.806345,-7550.100608,2516.700203,-71246.881314
2114.808940,0.000000,-592.164754,-73238.729609
2114.811534,7994.224174,2516.700203,-75230.577904
2114.814129,-1036.288319,444.123565,-73698.386908
2114.816724,-2368.659014,1628.453072,-73851.606007
2114.819318,-148.041188,1036.288319,-73238.729609
2114.821913,-888.247130,-1480.411884,-73851.606007
2114.824507,4441.235652,3108.864956,-71859.757712
2114.827102,-7846.182985,740.205942,-74311.263306
2114.829696,-6069.688724,1628.453072,-74770.920605
2114.832291,-7105.977043,1480.411884,-74004.825107
2114.834886,-1628.453072,444.123565,-73391.948708
2114.837480,2812.782580,888.247130,-73238.729609
2114.840075,3256.906145,-592.164754,-73851.606007
2114.842669,-2368.659014,3404.947333,-73545.167808
2114.845264,-14656.077652,592.164754,-75230.577904
2114.847858,-15692.365970,444.123565,-73851.606007
2114.850453,-3404.947333,1924.535449,-72319.415011
2114.853048,12139.377449,888.247130,-73851.606007
2114.855642,18949.272115,-148.041188,-74464.482406
2114.858237,3997.112087,740.205942,-73698.386908
2114.860831,-4441.235652,2664.741391,-72472.634111
2114.863426,-2220.617826,296.082377,-74770.920605
2114.866020,5625.565159,1480.411884,-73545.167808
2114.868615,13175.665768,148.041188,-73085.510509
2114.871210,8586.388927,1184.329507,-73545.167808
2114.873804,-3256.906145,1184.329507,-73545.167808
2114.876403,-6069.688724,3404.947333,-73851.606007
2114.879002,-444.123565,1332.370696,-73391.948708
2114.881601,13767.830521,1924.535449,-73238.729609
2114.884200,18061.024985,-1332.370696,-73698.386908
2114.886799,12583.501014,592.164754,-73238.729609
2114.889398,-7254.018232,1036.288319,-73238.729609
2114.891997,-4293.194464,1924.535449,-75383.797003
2114.894596,3552.988522,592.164754,-73238.729609
2114.897195,3404.947333,1332.370696,-72319.415011
2114.899794,7254.018232,1480.411884,-73391.948708
2114.902393,5181.441594,592.164754,-74158.044206
2114.904992,5477.523971,1776.494261,-74924.139704
2114.907591,7698.141797,1184.329507,-72472.634111
2114.910190,2812.782580,1036.288319,-74924.139704
2114.912789,2960.823768,1332.370696,-72319.415011
2114.915388,-2368.659014,1924.535449,-72166.195912
2114.917987,888.247130,1332.370696,-74311.263306
2114.920586,5181.441594,3256.906145,-73698.386908
2114.923186,11695.253884,-444.123565,-73545.167808
2114.925785,16580.613101,1776.494261,-74158.044206
2114.928384,2516.700203,-592.164754,-74158.044206
2114.930983,-11399.171507,2072.576638,-72932.291410
2114.933582,-19245.354492,2220.617826,-72166.195912
2114.936181,-3701.029710,2220.617826,-74770.920605
2114.938780,7550.100608,1184.329507,-73238.729609
2114.941379,3256.906145,1332.370696,-74311.263306
2114.943978,-6365.771101,1184.329507,-74617.701505
2114.946577,-15396.283594,2220.617826,-74311.263306
2114.949176,-11399.171507,0.000000,-72319.415011
2114.951775,2220.617826,1480.411884,-71553.319513
2114.954374,7550.100608,1332.370696,-73851.606007
2114.956973,5329.482782,2220.617826,-74924.139704
2114.959572,-6809.894666,1480.411884,-73545.167808
2114.962171,-14359.995275,-592.164754,-73085.510509
2114.964770,-148.041188,1924.535449,-73698.386908
2114.967369,444.123565,-296.082377,-73238.729609
2114.969968,3108.864956,3108.864956,-73391.948708
2114.972567,-5181.441594,2072.576638,-75690.235202
2114.975166,-9474.636058,1776.494261,-75077.358804
2114.977765,740.205942,2220.617826,-71400.100414
2114.980367,-3701.029710,-1036.288319,-72625.853210
2114.982969,-7846.182985,1776.494261,-73545.167808
2114.985571,-5921.647536,-296.082377,-74770.920605
2114.988173,-4441.235652,2664.741391,-74464.482406
2114.990775,-888.247130,296.082377,-75383.797003
2114.993377,3701.029710,1184.329507,-73851.606007
2114.995979,-3108.864956,740.205942,-71400.100414
2114.998581,-4293.194464,888.247130,-73238.729609
2115.001183,-15840.407159,1628.453072,-74004.825107
2115.003785,-15840.407159,1480.411884,-73698.386908
2115.006387,1628.453072,3404.947333,-73698.386908
2115.008989,15100.201217,148.041188,-74004.825107
2115.011591,10807.006753,1332.370696,-73238.729609
2115.014193,740.205942,148.041188,-73085.510509
2115.016795,-7105.977043,2516.700203,-73851.606007
2115.019397,-1332.370696,888.247130,-73851.606007
2115.021999,9030.512492,2072.576638,-74464.482406
2115.024601,16136.489536,148.041188,-72932.291410
2115.027203,9622.677246,2072.576638,-73851.606007
2115.029805,-1480.411884,-444.123565,-73698.386908
2115.032407,-6069.688724,2220.617826,-73698.386908
2115.035009,-6069.688724,296.082377,-73238.729609
2115.037611,16580.613101,1332.370696,-74004.825107
2115.040212,18357.107362,-592.164754,-72319.415011
2115.042814,14359.995275,296.082377,-74617.701505
2115.045416,-2960.823768,2516.700203,-75230.577904
2115.048018,-2072.576638,1036.288319,-74464.482406
2115.050620,4441.235652,444.123565,-72625.853210
2115.053222,2368.659014,740.205942,-73698.386908
2115.055824,11695.253884,888.247130,-74311.263306
2115.058426,5773.606348,592.164754,-72779.072310
2115.061028,4441.235652,1036.288319,-73698.386908
2115.063630,3404.947333,1628.453072,-74617.701505
2115.066232,-444.123565,1480.411884,-73851.606007
2115.068834,-2960.823768,740.205942,-73391.948708
2115.071436,1480.411884,1480.411884,-72166.195912
2115.074038,6217.729913,0.000000,-73545.167808
2115.076640,12879.583391,1924.535449,-73085.510509
2115.079242,17024.736666,1036.288319,-74464.482406
2115.081844,9622.677246,2812.782580,-73851.606007
2115.084449,-12435.459826,296.082377,-74311.263306
2115.087052,-18357.107362,888.247130,-71553.319513
2115.089655,-5181.441594,1184.329507,-73545.167808
2115.092258,6069.688724,1628.453072,-73391.948708
2115.094862,2960.823768,888.247130,-75077.358804
2115.097465,-2664.741391,3701.029710,-74004.825107
2115.100068,-10955.047942,1776.494261,-74770.920605
2115.102672,-9030.512492,0.000000,-72779.072310
2115.105275,-592.164754,444.123565,-71246.881314
2115.107878,5329.482782,740.205942,-73545.167808
2115.110481,3552.988522,3108.864956,-75996.673402
2115.113085,-5773.606348,740.205942,-74924.139704
2115.115688,-6365.771101,4441.235652,-72472.634111
2115.118291,-13027.624579,-1776.494261,-72779.072310
2115.120895,296.082377,1776.494261,-73391.948708
2115.123498,5921.647536,2812.782580,-74158.044206
2115.126101,-5921.647536,148.041188,-73851.606007
2115.128705,-2664.741391,3849.070898,-75077.358804
2115.131308,-7846.182985,-1184.329507,-73545.167808
2115.133911,-12287.418637,1036.288319,-72012.976812
2115.136514,-6217.729913,-592.164754,-75383.797003
2115.139118,-7550.100608,3256.906145,-73391.948708
2115.141721,-4737.318029,-296.082377,-74004.825107
2115.144324,1628.453072,1776.494261,-74004.825107
2115.146928,-444.123565,1036.288319,-74924.139704
2115.149531,-740.205942,-296.082377,-73085.510509
2115.152134,-7994.224174,3256.906145,-70787.224015
2115.154737,-11103.089130,148.041188,-73085.510509
2115.157341,-8290.306550,3849.070898,-74158.044206
2115.159944,8734.430116,296.082377,-74158.044206
2115.162547,19245.354492,1184.329507,-73085.510509
2115.165151,9178.553681,296.082377,-73391.948708
2115.167754,-2516.700203,2072.576638,-73545.167808
2115.170357,-5181.441594,1184.329507,-73085.510509
2115.172960,4145.153275,2220.617826,-75077.358804
2115.175564,14359.995275,1036.288319,-72779.072310
2115.178167,13027.624579,740.205942,-73698.386908
2115.180770,3404.947333,592.164754,-72932.291410
2115.183374,-5625.565159,1184.329507,-74311.263306
2115.185977,-1776.494261,1332.370696,-73851.606007
2115.188580,10510.924376,1628.453072,-73085.510509
2115.191183,12731.542202,296.082377,-74311.263306
2115.193786,10362.883188,1332.370696,-74464.482406
2115.196389,5477.523971,-740.205942,-75077.358804
2115.198991,-4737.318029,2368.659014,-73545.167808
2115.201594,-2812.782580,444.123565,-73545.167808
2115.204197,1924.535449,740.205942,-72472.634111
2115.206800,14359.995275,3108.864956,-72932.291410
2115.209403,13471.748144,0.000000,-75077.358804
2115.212006,7698.141797,888.247130,-74004.825107
2115.214609,2960.823768,1036.288319,-73851.606007
2115.217212,-2072.576638,1924.535449,-73085.510509
2115.219815,-4885.359217,-1480.411884,-74924.139704
2115.222418,148.041188,2516.700203,-72779.072310
2115.225020,7402.059420,1776.494261,-72472.634111
2115.227623,16284.530724,1628.453072,-73545.167808
2115.230226,14656.077652,740.205942,-73698.386908
2115.232829,444.123565,2220.617826,-72932.291410
2115.235432,-13323.706956,740.205942,-74924.139704
2115.238035,-19689.478057,296.082377,-74464.482406
2115.240638,-3997.112087,1184.329507,-72625.853210
2115.243241,8142.265362,1924.535449,-71246.881314
2115.245844,6957.935855,1628.453072,-74924.139704
2115.248447,-2516.700203,3256.906145,-75690.235202
2115.251049,-13915.871710,592.164754,-74158.044206
2115.253652,-10658.965565,0.000000,-72932.291410
2115.256255,1184.329507,592.164754,-72012.976812
2115.258858,7105.977043,444.123565,-73545.167808
2115.261461,3256.906145,3997.112087,-73851.606007
2115.264064,-11991.336260,1480.411884,-74924.139704
2115.266667,-11695.253884,2960.823768,-73391.948708
2115.269270,-13323.706956,592.164754,-71859.757712
2115.271873,2812.782580,740.205942,-72166.195912
2115.274476,-1332.370696,1036.288319,-74311.263306
2115.277078,-11695.253884,1332.370696,-74311.263306
2115.279681,5921.647536,4589.276840,-74004.825107
2115.282284,-16580.613101,1480.411884,-73238.729609
2115.284887,-8290.306550,888.247130,-75077.358804
2115.287490,-8438.347739,1332.370696,-72319.415011
2115.290093,-5033.400406,-148.041188,-73545.167808
2115.292695,-1924.535449,296.082377,-74617.701505
2115.295297,2960.823768,2516.700203,-75230.577904
2115.297900,0.000000,2812.782580,-73085.510509
2115.300502,-5773.606348,592.164754,-72166.195912
2115.303104,-15100.201217,-2072.576638,-73238.729609
2115.305706,-14063.912898,2960.823768,-72166.195912
2115.308309,1924.535449,296.082377,-75383.797003
2115.310911,14804.118840,2812.782580,-74158.044206
2115.313513,13767.830521,2072.576638,-73238.729609
2115.316115,2516.700203,592.164754,-72625.853210
2115.318717,-6513.812290,1924.535449,-73545.167808
2115.321320,-444.123565,1036.288319,-72472.634111
2115.323922,8438.347739,1924.535449,-73545.167808
2115.326524,14952.160028,1036.288319,-74464.482406
2115.329126,5773.606348,444.123565,-74464.482406
2115.331728,-3108.864956,1332.370696,-72932.291410
2115.334331,-6809.894666,2516.700203,-72779.072310
2115.336933,-3552.988522,1480.411884,-72472.634111
2115.339535,3256.906145,296.082377,-73698.386908
2115.342137,18357.107362,1184.329507,-75077.358804
2115.344740,11251.130318,2220.617826,-73698.386908
2115.347342,-5625.565159,-1332.370696,-74464.482406
2115.349944,4441.235652,1924.535449,-73085.510509
2115.352546,2220.617826,1184.329507,-70787.224015
2115.355148,14656.077652,148.041188,-75383.797003
2115.357751,18209.066173,2812.782580,-73391.948708
2115.360353,8142.265362,-740.205942,-73391.948708
2115.362955,5181.441594,1776.494261,-75690.235202
2115.365557,-3849.070898,296.082377,-74311.263306
2115.368160,-3849.070898,1480.411884,-71706.538613
2115.370762,-1480.411884,-444.123565,-72012.976812
2115.373364,8734.430116,1628.453072,-74311.263306
2115.375966,18949.272115,2220.617826,-74464.482406
2115.378568,13619.789333,1184.329507,-74770.920605
2115.381171,-2516.700203,-888.247130,-73391.948708
2115.383773,-18653.189738,1480.411884,-73851.606007
2115.386375,-12583.501014,0.000000,-73238.729609
2115.388977,2664.741391,2220.617826,-72319.415011
2115.391579,10807.006753,2368.659014,-74158.044206
2115.394182,740.205942,1036.288319,-75843.454302
2115.396783,-8438.347739,888.247130,-74004.825107
2115.399384,-12879.583391,2812.782580,-72472.634111
2115.401985,-6661.853478,-888.247130,-73238.729609
2115.404586,6069.688724,1332.370696,-72932.291410
2115.407187,9474.636058,3552.988522,-73545.167808
2115.409788,7402.059420,1184.329507,-76609.549800
2115.412389,-11843.295072,0.000000,-73851.606007
2115.414991,-12583.501014,1628.453072,-73085.510509
2115.417592,-3997.112087,-296.082377,-72932.291410
2115.420193,1480.411884,-2516.700203,-74004.825107
2115.422794,5329.482782,3108.864956,-73391.948708
2115.425395,-1480.411884,1924.535449,-73391.948708
2115.427996,-14508.036463,1184.329507,-75383.797003
2115.430597,-9474.636058,1480.411884,-73851.606007
2115.433198,-11103.089130,888.247130,-71400.100414
2115.435799,-2664.741391,-1036.288319,-72779.072310
2115.438401,296.082377,1924.535449,-74004.825107
2115.441002,1036.288319,2368.659014,-75690.235202
2115.443603,1184.329507,1776.494261,-73851.606007
2115.446204,-9178.553681,2072.576638,-73851.606007
2115.448805,-15544.324782,-888.247130,-72166.195912
2115.451406,-12139.377449,1036.288319,-72012.976812
2115.454007,5033.400406,1036.288319,-74617.701505
2115.456608,16580.613101,1924.535449,-74617.701505
2115.459209,12731.542202,2072.576638,-73851.606007
2115.461811,1480.411884,1332.370696,-72319.415011
2115.464412,-7105.977043,2516.700203,-74464.482406
2115.467013,888.247130,1036.288319,-73545.167808
2115.469614,9770.718434,1036.288319,-72625.853210
2115.472215,14656.077652,1924.535449,-73238.729609
2115.474816,7846.182985,444.123565,-74924.139704
2115.477417,-4145.153275,2960.823768,-73391.948708
2115.480018,-4145.153275,1776.494261,-73698.386908
2115.482619,4441.235652,0.000000,-73085.510509
2115.485221,12435.459826,1036.288319,-73238.729609
2115.487822,8586.388927,0.000000,-73238.729609
2115.490423,6957.935855,740.205942,-75230.577904
2115.493024,-6957.935855,2072.576638,-75537.016103
2115.495625,444.123565,444.123565,-73085.510509
2115.498226,14359.995275,740.205942,-72319.415011
2115.500825,10362.883188,1628.453072,-72472.634111
2115.503423,15396.283594,148.041188,-75077.358804
2115.506022,8882.471304,1184.329507,-74924.139704
2115.508621,148.041188,1628.453072,-74770.920605
2115.511219,-4293.194464,-592.164754,-72625.853210
2115.513818,-3256.906145,1036.288319,-72625.853210
2115.516416,5625.565159,2664.741391,-72319.415011
2115.519015,14508.036463,1332.370696,-73698.386908
2115.521614,17024.736666,888.247130,-75690.235202
2115.524212,6217.729913,2368.659014,-72932.291410
2115.526811,-13323.706956,296.082377,-74770.920605
2115.529409,-22206.178260,444.123565,-73545.167808
2115.532008,-8290.306550,1036.288319,-72932.291410
2115.534607,6069.688724,2220.617826,-70787.224015
2115.537205,9326.594869,888.247130,-74924.139704
2115.539804,-444.123565,3404.947333,-76149.892501
2115.542403,-11843.295072,1184.329507,-75230.577904
2115.545001,-11695.253884,-1184.329507,-73851.606007
2115.547600,-5033.400406,-148.041188,-72012.976812
2115.550198,6069.688724,444.123565,-72472.634111
2115.552797,8882.471304,3997.112087,-73085.510509
2115.555396,6513.812290,3108.864956,-75690.235202
2115.557994,-7550.100608,-444.123565,-73698.386908
2115.560593,-11991.336260,1036.288319,-72932.291410
2115.563191,1036.288319,148.041188,-73085.510509
2115.565790,4737.318029,444.123565,-72932.291410
2115.568389,-3552.988522,2516.700203,-74464.482406
2115.570987,-740.205942,1924.535449,-73238.729609
2115.573586,-3552.988522,2220.617826,-73851.606007
2115.576185,-11695.253884,-148.041188,-74158.044206
2115.578783,-148.041188,740.205942,-72472.634111
2115.581382,2960.823768,0.000000,-72625.853210
2115.583980,2960.823768,296.082377,-74311.263306
2115.586579,-592.164754,2072.576638,-75077.358804
2115.589178,-6957.935855,2368.659014,-73851.606007
2115.591776,-16284.530724,444.123565,-73085.510509
2115.594375,-13767.830521,888.247130,-73545.167808
2115.596973,5773.606348,-1332.370696,-71859.757712
2115.599572,16284.530724,2960.823768,-74311.263306
2115.602171,12139.377449,1184.329507,-76303.111601
2115.604767,-296.082377,1184.329507,-73851.606007
2115.607363,-9770.718434,888.247130,-73238.729609
2115.609960,148.041188,1924.535449,-71093.662214
2115.612556,7994.224174,592.164754,-74311.263306
2115.615153,16136.489536,444.123565,-73238.729609
2115.617749,7550.100608,1628.453072,-74770.920605
2115.620345,-5033.400406,740.205942,-75230.577904
2115.622942,-9474.636058,1776.494261,-73085.510509
2115.625538,-7254.018232,1332.370696,-70634.004916
2115.628135,7846.182985,148.041188,-72472.634111
2115.630731,14952.160028,3256.906145,-72472.634111
2115.633327,8734.430116,740.205942,-74617.701505
2115.635924,-296.082377,3108.864956,-74924.139704
2115.638520,-7402.059420,1924.535449,-75383.797003
2115.641117,3256.906145,148.041188,-72319.415011
2115.643713,4441.235652,1924.535449,-72012.976812
2115.646309,11695.253884,2664.741391,-74311.263306
2115.648906,9178.553681,2516.700203,-73391.948708
2115.651502,-2220.617826,1332.370696,-74617.701505
2115.654098,-1628.453072,2220.617826,-73238.729609
2115.656695,-2516.700203,148.041188,-74158.044206
2115.659291,6957.935855,-888.247130,-72012.976812
2115.661888,16432.571912,1924.535449,-72319.415011
2115.664484,15396.283594,2072.576638,-73851.606007
2115.667080,-2516.700203,2812.782580,-75690.235202
2115.669677,-17024.736666,2220.617826,-74464.482406
2115.672273,-13767.830521,-592.164754,-72625.853210
2115.674870,-1924.535449,-592.164754,-71246.881314
2115.677466,5773.606348,1332.370696,-73545.167808
2115.680062,1924.535449,1776.494261,-74158.044206
2115.682659,-6957.935855,2368.659014,-75843.454302
2115.685255,-15396.283594,1924.535449,-73238.729609
2115.687852,-7550.100608,-1036.288319,-71859.757712
2115.690448,1924.535449,1036.288319,-71706.538613
2115.693044,2960.823768,-444.123565,-75383.797003
2115.695641,-5033.400406,3997.112087,-74004.825107
2115.698237,-8142.265362,1332.370696,-75537.016103
2115.700834,-15248.242405,2812.782580,-74158.044206
2115.703430,-2072.576638,740.205942,-72319.415011
2115.706026,4293.194464,-444.123565,-71859.757712
2115.708620,2368.659014,2516.700203,-72932.291410
2115.711214,-592.164754,1184.329507,-76149.892501
2115.713809,-18357.107362,1036.288319,-75077.358804
2115.716403,-14063.912898,1332.370696,-73851.606007
2115.718997,-3552.988522,2220.617826,-71859.757712
2115.721591,-296.082377,296.082377,-72166.195912
2115.724185,7254.018232,-592.164754,-73238.729609
2115.726779,740.205942,3404.947333,-75077.358804
2115.729373,-9030.512492,2812.782580,-76303.111601
2115.731967,-15396.283594,1036.288319,-74464.482406
2115.734561,-18357.107362,1776.494261,-72319.415011
2115.737155,7698.141797,-1628.453072,-71859.757712
2115.739749,19837.519246,1332.370696,-72779.072310
2115.742343,15100.201217,3256.906145,-74770.920605
2115.744938,1332.370696,1776.494261,-74617.701505
2115.747532,-8438.347739,1184.329507,-76149.892501
2115.750126,-1628.453072,-148.041188,-72932.291410
2115.752720,8142.265362,1184.329507,-72166.195912
2115.755314,14952.160028,148.041188,-71246.881314
2115.757908,10362.883188,1924.535449,-75230.577904
2115.760502,-3108.864956,2072.576638,-73698.386908
2115.763096,-7550.100608,1924.535449,-75996.673402
2115.765690,4293.194464,-148.041188,-73085.510509
2115.768284,10807.006753,0.000000,-72166.195912
2115.770878,8734.430116,-888.247130,-71400.100414
2115.773472,1480.411884,1924.535449,-75843.454302
2115.776066,4145.153275,2220.617826,-76456.330700
2115.778661,-2220.617826,1184.329507,-73085.510509
2115.781255,10510.924376,1332.370696,-71706.538613
2115.783849,11399.171507,-148.041188,-72166.195912
2115.786443,6661.853478,2220.617826,-72472.634111
2115.789037,5625.565159,740.205942,-74617.701505
2115.791583,-3108.864956,3108.864956,-74311.263306
2115.794130,-1332.370696,1332.370696,-75383.797003
2115.796676,3256.906145,1184.329507,-71859.757712
2115.799223,14063.912898,-444.123565,-72472.634111
2115.801769,19837.519246,2220.617826,-73238.729609
2115.804316,9622.677246,1036.288319,-73851.606007
2115.806862,-12139.377449,3552.988522,-74464.482406
2115.809409,-19245.354492,1480.411884,-73698.386908
2115.811955,-1036.288319,-2072.576638,-72319.415011
2115.814502,7846.182985,1184.329507,-71093.662214
2115.817048,1628.453072,148.041188,-74004.825107
2115.819595,-6809.894666,3997.112087,-76456.330700
2115.822141,-14508.036463,740.205942,-75077.358804
2115.824687,-8438.347739,1776.494261,-72932.291410
2115.827234,-296.082377,592.164754,-72012.976812
2115.829780,4293.194464,-740.205942,-73085.510509
2115.832327,-296.082377,3701.029710,-73545.167808
2115.834873,-8586.388927,-1184.329507,-77069.207099
2115.837420,-15988.448347,3552.988522,-75690.235202
2115.839966,-3552.988522,1036.288319,-73238.729609
2115.842513,4737.318029,592.164754,-69714.690318
2115.845059,2368.659014,444.123565,-72932.291410
2115.847606,-4145.153275,2812.782580,-74617.701505
2115.850152,-13767.830521,888.247130,-74158.044206
2115.852699,-9474.636058,1924.535449,-75843.454302
2115.855245,-6069.688724,2072.576638,-72932.291410
2115.857792,444.123565,148.041188,-72319.415011
2115.860338,7254.018232,1776.494261,-71400.100414
2115.862885,444.123565,1924.535449,-73545.167808
2115.865431,-9474.636058,2960.823768,-74924.139704
2115.867978,-15988.448347,592.164754,-75383.797003
2115.870524,-10510.924376,2960.823768,-73238.729609
2115.873070,6513.812290,-888.247130,-74464.482406
2115.875617,20873.807564,-296.082377,-72472.634111
2115.878163,13027.624579,2072.576638,-72625.853210
2115.880710,-1036.288319,2812.782580,-75383.797003
2115.883256,-5033.400406,0.000000,-76303.111601
2115.885803,1480.411884,2072.576638,-72166.195912
2115.888349,12879.583391,-740.205942,-73238.729609
2115.890896,13619.789333,296.082377,-72625.853210
2115.893450,5921.647536,296.082377,-73851.606007
2115.896004,-2220.617826,3404.947333,-74464.482406
2115.898558,-1184.329507,1628.453072,-75230.577904
2115.901112,740.205942,740.205942,-73545.167808
2115.903666,4441.235652,-444.123565,-71246.881314
2115.906220,12287.418637,592.164754,-71400.100414
2115.908773,-1184.329507,592.164754,-75077.358804
2115.911327,-7550.100608,2516.700203,-75996.673402
2115.913881,10658.965565,2812.782580,-73698.386908
2115.916435,9178.553681,148.041188,-72779.072310
2115.918989,14508.036463,444.123565,-72625.853210
2115.921543,11251.130318,1036.288319,-72625.853210
2115.924097,5033.400406,740.205942,-73851.606007
2115.926651,-1036.288319,2960.823768,-75383.797003
2115.929205,-1332.370696,1480.411884,-74770.920605
2115.931759,10214.842000,1036.288319,-71246.881314
2115.934313,17172.777854,444.123565,-72472.634111
2115.936867,13175.665768,740.205942,-73851.606007
2115.939421,-3849.070898,1480.411884,-72625.853210
2115.941975,-17024.736666,2960.823768,-76456.330700
2115.944529,-10362.883188,1924.535449,-74617.701505
2115.947083,-2812.782580,1628.453072,-73851.606007
2115.949637,6069.688724,-1036.288319,-71093.662214
2115.952191,148.041188,2516.700203,-73238.729609
2115.954745,-12731.542202,1924.535449,-75843.454302
2115.957299,-9770.718434,1628.453072,-75230.577904
2115.959853,-6513.812290,2516.700203,-73391.948708
2115.962407,4589.276840,0.000000,-73851.606007
2115.964961,8290.306550,296.082377,-72932.291410
2115.967515,1924.535449,2368.659014,-73545.167808
2115.970068,-13619.789333,0.000000,-72779.072310
2115.972622,-4441.235652,2368.659014,-75996.673402
2115.975176,-8142.265362,1332.370696,-72779.072310
2115.977730,-6069.688724,1036.288319,-73698.386908
2115.980284,9622.677246,592.164754,-73851.606007
2115.982838,-12287.418637,1332.370696,-73545.167808
2115.985392,-9030.512492,-888.247130,-73545.167808
2115.987946,-10955.047942,2812.782580,-74311.263306
2115.990500,-444.123565,740.205942,-75690.235202
2115.993054,5181.441594,888.247130,-73698.386908
2115.995614,2516.700203,1036.288319,-71706.538613
2115.998174,-3256.906145,2960.823768,-73851.606007
2116.000734,-18653.189738,1480.411884,-74770.920605
2116.003294,-14804.118840,2960.823768,-75077.358804
2116.005855,6957.935855,1184.329507,-72625.853210
2116.008415,18949.272115,-740.205942,-74311.263306
2116.010975,14359.995275,2220.617826,-71093.662214
2116.013535,2812.782580,1036.288319,-75077.358804
2116.016095,-2664.741391,2516.700203,-74004.825107
2116.018655,-1480.411884,1628.453072,-75537.016103
2116.021215,9030.512492,1776.494261,-73238.729609
2116.023775,13175.665768,1184.329507,-71859.757712
2116.026335,8438.347739,-592.164754,-73545.167808
2116.028895,-2664.741391,2516.700203,-73698.386908
2116.031455,-5477.523971,592.164754,-73851.606007
2116.034015,-1332.370696,2220.617826,-75230.577904
2116.036576,3404.947333,296.082377,-74464.482406
2116.039136,8882.471304,1480.411884,-72166.195912
2116.041696,2516.700203,444.123565,-72166.195912
2116.044256,-5921.647536,888.247130,-74924.139704
2116.046816,10066.800811,1924.535449,-75077.358804
2116.049376,3849.070898,2812.782580,-74158.044206
2116.051936,9474.636058,1332.370696,-74617.701505
2116.054496,7994.224174,296.082377,-71246.881314
2116.057056,-4145.153275,592.164754,-73391.948708
2116.059616,592.164754,592.164754,-74464.482406
2116.062176,-2368.659014,2072.576638,-75077.358804
2116.064736,11251.130318,0.000000,-72779.072310
2116.067297,18209.066173,1924.535449,-72779.072310
2116.069857,9770.718434,444.123565,-74311.263306
2116.072417,-10066.800811,3404.947333,-73391.948708
2116.074977,-17468.860231,444.123565,-74004.825107
2116.077537,-7698.141797,1480.411884,-73545.167808
2116.080097,3108.864956,444.123565,-73085.510509
2116.082657,740.205942,1036.288319,-74158.044206
2116.085217,1036.288319,3701.029710,-73238.729609
2116.087777,-11251.130318,592.164754,-74158.044206
2116.090337,-8438.347739,-444.123565,-73698.386908
2116.092897,-1332.370696,1332.370696,-73698.386908
2116.095458,444.123565,444.123565,-74004.825107
2116.098022,-4145.153275,740.205942,-74617.701505
2116.100586,-6661.853478,2664.741391,-73391.948708
2116.103150,296.082377,1184.329507,-72472.634111
2116.105714,-6069.688724,1184.329507,-72319.415011
2116.108278,4589.276840,1036.288319,-75077.358804
2116.110842,-2072.576638,444.123565,-74004.825107
2116.113406,-444.123565,888.247130,-75077.358804
2116.115970,-9770.718434,-148.041188,-72625.853210
2116.118534,-13323.706956,1924.535449,-72012.976812
2116.121098,1036.288319,296.082377,-73238.729609
2116.123662,1628.453072,2664.741391,-73851.606007
2116.126226,2664.741391,296.082377,-75383.797003
2116.128790,-6513.812290,2368.659014,-72012.976812
2116.131354,-16876.695478,-592.164754,-74158.044206
2116.133918,-15692.365970,1776.494261,-74464.482406
2116.136482,-1184.329507,-740.205942,-73851.606007
2116.139046,18061.024985,2516.700203,-71859.757712
2116.141610,15840.407159,2812.782580,-73851.606007
2116.144174,1628.453072,-444.123565,-75383.797003
2116.146738,-5181.441594,1480.411884,-72779.072310
2116.149302,-1332.370696,1332.370696,-73851.606007
2116.151866,8290.306550,444.123565,-73238.729609
2116.154430,12139.377449,0.000000,-74158.044206
2116.156994,11399.171507,3552.988522,-72166.195912
2116.159558,-740.205942,740.205942,-74617.701505
2116.162122,-148.041188,1480.411884,-74158.044206
2116.164686,-3997.112087,740.205942,-72472.634111
2116.167250,10066.800811,-1628.453072,-73085.510509
2116.169815,8734.430116,1776.494261,-73851.606007
2116.172379,-1332.370696,1332.370696,-74464.482406
2116.174943,592.164754,2368.659014,-73238.729609
2116.177507,2960.823768,2072.576638,-73391.948708
2116.180071,9030.512492,1332.370696,-73545.167808
2116.182635,12139.377449,1332.370696,-72779.072310
2116.185199,5181.441594,740.205942,-73391.948708
2116.187763,1036.288319,1332.370696,-75077.358804
2116.190327,-4737.318029,2664.741391,-72932.291410
2116.192891,8142.265362,1332.370696,-73851.606007
2116.195455,17616.901420,888.247130,-73698.386908
2116.198019,16136.489536,296.082377,-74158.044206
2116.200586,2072.576638,-148.041188,-73238.729609
2116.203153,-15396.283594,3108.864956,-74004.825107
2116.205720,-15988.448347,0.000000,-74924.139704
2116.208288,-7402.059420,592.164754,-72779.072310
2116.210855,5921.647536,1184.329507,-72472.634111
2116.213422,2220.617826,2368.659014,-72779.072310
2116.215989,-8734.430116,740.205942,-73698.386908
2116.218556,-11399.171507,3108.864956,-74158.044206
2116.221124,-10214.842000,-592.164754,-74158.044206
2116.223691,1776.494261,296.082377,-74464.482406
2116.226258,6957.935855,888.247130,-72932.291410
2116.228825,4293.194464,3552.988522,-73851.606007
2116.231392,296.082377,1184.329507,-73391.948708
2116.233960,-10362.883188,-888.247130,-75230.577904
2116.236527,-9326.594869,2368.659014,-73545.167808
2116.239094,592.164754,444.123565,-73085.510509
2116.241661,-8734.430116,-148.041188,-74617.701505
2116.244228,-13323.706956,2664.741391,-73085.510509
2116.246796,-4885.359217,1184.329507,-73851.606007
2116.249363,-8290.306550,740.205942,-74770.920605
2116.251930,1924.535449,-296.082377,-74004.825107
2116.254497,-888.247130,2516.700203,-72625.853210
2116.257064,-3108.864956,888.247130,-74464.482406
2116.259632,-14211.954086,148.041188,-74924.139704
2116.262199,-17912.983796,2516.700203,-72779.072310
2116.264766,2960.823768,296.082377,-72779.072310
2116.267333,16876.695478,1776.494261,-74158.044206
2116.269900,12139.377449,1036.288319,-73391.948708
2116.272468,3256.906145,1184.329507,-73851.606007
2116.275035,-6217.729913,0.000000,-74158.044206
2116.277602,-1332.370696,1628.453072,-73238.729609
2116.280169,6217.729913,1480.411884,-73085.510509
2116.282736,14063.912898,1036.288319,-72779.072310
2116.285304,12731.542202,2664.741391,-73391.948708
2116.287871,2960.823768,296.082377,-74770.920605
2116.290438,-10510.924376,3552.988522,-73085.510509
2116.293005,-2960.823768,1480.411884,-73391.948708
2116.295572,10066.800811,-148.041188,-73851.606007
2116.298140,17172.777854,148.041188,-71246.881314
2116.300707,-5773.606348,2220.617826,-74158.044206
2116.303277,13915.871710,2072.576638,-75230.577904
2116.305847,-4441.235652,740.205942,-73391.948708
2116.308417,7254.018232,2072.576638,-73085.510509
2116.310988,14508.036463,1628.453072,-71553.319513
2116.313558,296.082377,2072.576638,-72625.853210
2116.316128,2072.576638,-296.082377,-75383.797003
2116.318698,4145.153275,3552.988522,-71859.757712
2116.321268,8882.471304,-592.164754,-75383.797003
2116.323839,17320.819043,592.164754,-73085.510509
2116.326409,8734.430116,148.041188,-73851.606007
2116.328979,-1332.370696,1184.329507,-74158.044206
2116.331549,-18653.189738,888.247130,-75077.358804
2116.334119,-12583.501014,1184.329507,-73085.510509
2116.336689,3701.029710,2664.741391,-71553.319513
2116.339260,2812.782580,-296.082377,-75690.235202
2116.341830,296.082377,2516.700203,-73391.948708
2116.344400,-10510.924376,-296.082377,-74464.482406
2116.346970,-11399.171507,1628.453072,-72932.291410
2116.349540,-7994.224174,740.205942,-73238.729609
2116.352111,3552.988522,-296.082377,-73391.948708
2116.354681,7846.182985,1480.411884,-73238.729609
2116.357251,1480.411884,444.123565,-73698.386908
2116.359821,-7994.224174,2072.576638,-72472.634111
2116.362391,-3701.029710,0.000000,-73391.948708
2116.364961,-1184.329507,1628.453072,-72932.291410
2116.367532,-1480.411884,444.123565,-74004.825107
2116.370102,2516.700203,888.247130,-73085.510509
2116.372672,-10214.842000,2220.617826,-73698.386908
2116.375242,-4737.318029,1776.494261,-74311.263306
2116.377812,-2516.700203,1184.329507,-74004.825107
2116.380383,1332.370696,1628.453072,-73698.386908
2116.382953,1924.535449,148.041188,-73391.948708
2116.385523,-11991.336260,-296.082377,-74924.139704
2116.388093,-14804.118840,2220.617826,-74311.263306
2116.390663,-2516.700203,2664.741391,-73238.729609
2116.393233,8142.265362,740.205942,-73238.729609
2116.395804,19689.478057,592.164754,-73238.729609
2116.398374,7994.224174,1036.288319,-74158.044206
2116.400944,-1776.494261,1776.494261,-74617.701505
2116.403514,-1184.329507,1036.288319,-75537.016103
2116.406086,444.123565,1776.494261,-72779.072310
2116.408657,13767.830521,148.041188,-73085.510509
2116.411229,13471.748144,1628.453072,-72779.072310
2116.413801,6809.894666,592.164754,-74770.920605
2116.416372,1924.535449,296.082377,-74770.920605
2116.418944,-1184.329507,2664.741391,-74924.139704
2116.421516,-5033.400406,-444.123565,-73545.167808
2116.424087,8734.430116,740.205942,-73085.510509
2116.426659,9770.718434,1036.288319,-73238.729609
2116.429231,5773.606348,1924.535449,-72625.853210
2116.431802,10214.842000,296.082377,-75383.797003
2116.434374,9474.636058,444.123565,-73545.167808
2116.436946,9178.553681,-888.247130,-74158.044206
2116.439517,8142.265362,2072.576638,-75230.577904
2116.442089,1628.453072,-444.123565,-72472.634111
2116.444661,3552.988522,3108.864956,-70940.443115
2116.447232,6957.935855,1036.288319,-74158.044206
2116.449804,15396.283594,1332.370696,-75230.577904
2116.452376,13619.789333,1036.288319,-72932.291410
2116.454947,-1184.329507,444.123565,-73698.386908
2116.457519,-17024.736666,1036.288319,-73851.606007
2116.460091,-8586.388927,740.205942,-73391.948708
2116.462662,-2368.659014,2664.741391,-72779.072310
2116.465234,4145.153275,1184.329507,-73698.386908
2116.467806,592.164754,2072.576638,-74158.044206
2116.470377,-9326.594869,-296.082377,-74158.044206
2116.472949,-8290.306550,1628.453072,-73545.167808
2116.475521,-5773.606348,444.123565,-73851.606007
2116.478092,-2072.576638,592.164754,-74004.825107
2116.480664,-1480.411884,2812.782580,-72932.291410
2116.483235,0.000000,444.123565,-74617.701505
2116.485807,-4441.235652,2812.782580,-73545.167808
2116.488379,-5625.565159,-740.205942,-73238.729609
2116.490950,-592.164754,1184.329507,-73545.167808
2116.493522,592.164754,444.123565,-74311.263306
2116.496094,-6217.729913,2072.576638,-74004.825107
2116.498665,-11399.171507,1184.329507,-72625.853210
2116.501237,-8438.347739,1332.370696,-73698.386908
2116.503809,-2960.823768,2516.700203,-72472.634111
2116.506380,2516.700203,0.000000,-73391.948708
2116.508952,-3849.070898,2072.576638,-73391.948708
2116.511524,-12435.459826,-888.247130,-75843.454302
2116.514096,-17172.777854,2516.700203,-74158.044206
2116.516668,-4293.194464,1184.329507,-73391.948708
2116.519240,13175.665768,2072.576638,-72012.976812
2116.521812,14211.954086,296.082377,-73698.386908
2116.524384,9030.512492,888.247130,-73851.606007
2116.526956,-592.164754,1776.494261,-74158.044206
2116.529528,-888.247130,1628.453072,-74617.701505
2116.532100,6809.894666,1332.370696,-73698.386908
2116.534672,10362.883188,-296.082377,-71246.881314
2116.537243,12731.542202,2072.576638,-73238.729609
2116.539815,1480.411884,888.247130,-75383.797003
2116.542387,2812.782580,1480.411884,-74770.920605
2116.544959,4589.276840,2960.823768,-72625.853210
2116.547531,9178.553681,-1628.453072,-74311.263306
2116.550103,2516.700203,1184.329507,-71706.538613
2116.552675,2220.617826,1628.453072,-73698.386908
2116.555247,3701.029710,888.247130,-73391.948708
2116.557819,-2812.782580,2960.823768,-74464.482406
2116.560391,15396.283594,740.205942,-73391.948708
2116.562963,5477.523971,1332.370696,-73851.606007
2116.565535,11399.171507,444.123565,-73851.606007
2116.568107,-1332.370696,2812.782580,-71553.319513
2116.570679,0.000000,444.123565,-75383.797003
2116.573250,10362.883188,2072.576638,-72779.072310
2116.575822,11843.295072,1628.453072,-74004.825107
2116.578394,3108.864956,740.205942,-73545.167808
2116.580966,-9474.636058,1776.494261,-73238.729609
2116.583538,-13767.830521,740.205942,-74311.263306
2116.586110,-7402.059420,1776.494261,-73698.386908
2116.588682,888.247130,888.247130,-73698.386908
2116.591254,-3701.029710,1776.494261,-73391.948708
2116.593826,-5921.647536,1628.453072,-74924.139704
2116.596398,-8734.430116,888.247130,-73085.510509
2116.598970,-6661.853478,592.164754,-72625.853210
2116.601542,-2220.617826,1184.329507,-73851.606007
2116.604114,-7254.018232,296.082377,-74004.825107
2116.606686,-4589.276840,2960.823768,-75077.358804
2116.609257,3997.112087,1924.535449,-72932.291410
2116.611830,-8290.306550,-444.123565,-72625.853210
2116.614402,5033.400406,740.205942,-73851.606007
2116.616974,-2220.617826,1924.535449,-73545.167808
2116.619546,-4293.194464,1332.370696,-75077.358804
2116.622118,-2664.741391,1776.494261,-75077.358804
2116.624690,-9622.677246,3256.906145,-71859.757712
2116.627262,-444.123565,-1628.453072,-73238.729609
2116.629834,-1628.453072,148.041188,-72625.853210
2116.632406,-3849.070898,2960.823768,-73391.948708
2116.634979,-6217.729913,740.205942,-74158.044206
2116.637551,-14508.036463,2812.782580,-74924.139704
2116.640123,740.205942,592.164754,-73851.606007
2116.642695,15840.407159,2220.617826,-71706.538613
2116.645267,12139.377449,1628.453072,-73085.510509
2116.647839,3108.864956,740.205942,-74617.701505
2116.650411,-2220.617826,-296.082377,-75230.577904
2116.652983,2072.576638,2664.741391,-73851.606007
2116.655555,9474.636058,-296.082377,-73238.729609
2116.658128,9918.759623,-592.164754,-73391.948708
2116.660700,7402.059420,3552.988522,-72012.976812
2116.663272,-1776.494261,1480.411884,-74464.482406
2116.665844,-1184.329507,1184.329507,-74617.701505
2116.668416,4293.194464,1924.535449,-74158.044206
2116.670988,6365.771101,296.082377,-73545.167808
2116.673560,296.082377,-592.164754,-73085.510509
2116.676132,-740.205942,1480.411884,-74004.825107
2116.678704,2960.823768,2368.659014,-72779.072310
2116.681277,11991.336260,2664.741391,-73698.386908
2116.683849,12583.501014,1776.494261,-72779.072310
2116.686421,12287.418637,1628.453072,-72625.853210
2116.688993,5625.565159,148.041188,-74617.701505
2116.691565,1036.288319,1332.370696,-74924.139704
2116.694137,7846.182985,1184.329507,-73238.729609
2116.696709,11991.336260,1480.411884,-72625.853210
2116.699281,8142.265362,2516.700203,-73085.510509
2116.701853,-2220.617826,592.164754,-74158.044206
2116.704426,-13619.789333,1036.288319,-73545.167808
2116.706998,-6809.894666,888.247130,-72472.634111
2116.709570,-1628.453072,1332.370696,-74311.263306
2116.712142,-5625.565159,1332.370696,-74464.482406
2116.714714,-1480.411884,2072.576638,-73545.167808
2116.717286,-12435.459826,740.205942,-73391.948708
2116.719858,-5477.523971,-1480.411884,-74617.701505
2116.722431,-3256.906145,1184.329507,-72319.415011
2116.725003,-9622.677246,1184.329507,-73545.167808
2116.727575,-3404.947333,1924.535449,-75690.235202
2116.730147,-8586.388927,2812.782580,-73851.606007
2116.732719,-5921.647536,1628.453072,-72166.195912
2116.735292,-8586.388927,888.247130,-72012.976812
2116.737864,2664.741391,296.082377,-73391.948708
2116.740436,-8734.430116,1184.329507,-72472.634111
2116.743008,-11843.295072,2072.576638,-74464.482406
2116.745580,-7698.141797,0.000000,-74311.263306
2116.748153,-7994.224174,2072.576638,-74158.044206
2116.750725,-740.205942,-740.205942,-73238.729609
2116.753297,0.000000,3552.988522,-71400.100414
2116.755869,-9622.677246,-1332.370696,-75077.358804
2116.758441,-10066.800811,4441.235652,-73545.167808
2116.761014,-2664.741391,444.123565,-75230.577904
2116.763586,11251.130318,1332.370696,-73085.510509
2116.766158,13471.748144,444.123565,-71859.757712
2116.768730,6365.771101,-296.082377,-72472.634111
2116.771302,-296.082377,3108.864956,-74158.044206
2116.773875,1776.494261,2516.700203,-74311.263306
2116.776447,9918.759623,1332.370696,-74158.044206
2116.779019,12287.418637,148.041188,-73545.167808
2116.781591,8586.388927,1628.453072,-73851.606007
2116.784163,-2812.782580,888.247130,-74158.044206
2116.786735,-5181.441594,1924.535449,-74158.044206
2116.789308,5033.400406,1776.494261,-74770.920605
2116.791880,9178.553681,148.041188,-75383.797003
2116.794452,4589.276840,1184.329507,-72779.072310
2116.797024,8290.306550,0.000000,-73085.510509
2116.799596,1628.453072,1184.329507,-75077.358804
2116.802169,8734.430116,1036.288319,-74464.482406
2116.804741,4737.318029,296.082377,-72779.072310
2116.807313,7994.224174,1628.453072,-73698.386908
2116.809885,3552.988522,148.041188,-73698.386908
2116.812457,592.164754,0.000000,-73085.510509
2116.815030,10214.842000,1036.288319,-73085.510509
2116.817602,13471.748144,1628.453072,-74770.920605
2116.820174,2664.741391,1332.370696,-75077.358804
2116.822747,-6809.894666,2664.741391,-72472.634111
2116.825319,-13619.789333,-888.247130,-74464.482406
2116.827891,-6069.688724,1924.535449,-72625.853210
2116.830464,1924.535449,592.164754,-73698.386908
2116.833036,-296.082377,3404.947333,-72625.853210
2116.835608,-2516.700203,1776.494261,-75537.016103
2116.838181,-12435.459826,1036.288319,-73851.606007
2116.840753,-8586.388927,-148.041188,-73085.510509
2116.843325,148.041188,1184.329507,-71246.881314
2116.845898,-2960.823768,1480.411884,-74004.825107
2116.848470,4441.235652,1776.494261,-74158.044206
2116.851042,-8142.265362,2664.741391,-73391.948708
2116.853615,-5921.647536,444.123565,-75077.358804
2116.856187,148.041188,888.247130,-73545.167808
2116.858760,148.041188,740.205942,-72166.195912
2116.861332,-5329.482782,444.123565,-74770.920605
2116.863904,-9474.636058,3108.864956,-73545.167808
2116.866477,-7550.100608,1036.288319,-73545.167808
2116.869049,-2812.782580,3256.906145,-73238.729609
2116.871621,1332.370696,-592.164754,-75230.577904
2116.874194,-3997.112087,1332.370696,-72779.072310
2116.876766,-13323.706956,592.164754,-73851.606007
2116.879338,-12731.542202,2812.782580,-74464.482406
2116.881911,-888.247130,296.082377,-75230.577904
2116.884483,13767.830521,-296.082377,-73238.729609
2116.887055,10510.924376,2072.576638,-72625.853210
2116.889628,2220.617826,444.123565,-73851.606007
2116.892200,888.247130,1776.494261,-74617.701505
2116.894772,2516.700203,1480.411884,-74464.482406
2116.897345,8734.430116,1184.329507,-73851.606007
2116.899917,8142.265362,1036.288319,-72625.853210
2116.902490,6661.853478,1036.288319,-72779.072310
2116.905062,10214.842000,2220.617826,-73238.729609
2116.907634,3552.988522,1480.411884,-74770.920605
2116.910207,5181.441594,1776.494261,-73238.729609
2116.912779,3256.906145,1184.329507,-72166.195912
2116.915351,148.041188,-148.041188,-74464.482406
2116.917924,2072.576638,740.205942,-74004.825107
2116.920457,-1924.535449,1628.453072,-73545.167808
2116.922990,13323.706956,1184.329507,-72625.853210
2116.925524,9622.677246,3108.864956,-74464.482406
2116.928057,9622.677246,-148.041188,-74617.701505
2116.930591,3256.906145,296.082377,-72472.634111
2116.933124,4885.359217,444.123565,-74617.701505
2116.935657,10362.883188,1036.288319,-74158.044206
2116.938191,5329.482782,1332.370696,-73851.606007
2116.940724,-2072.576638,2664.741391,-74004.825107
2116.943258,-10362.883188,1776.494261,-73698.386908
2116.945791,-6661.853478,1480.411884,-74158.044206
2116.948324,-1776.494261,1036.288319,-71859.757712
2116.950858,-3256.906145,148.041188,-74924.139704
2116.953391,-7402.059420,1184.329507,-74770.920605
2116.955925,-12583.501014,1036.288319,-74617.701505
2116.958458,-3108.864956,1776.494261,-72779.072310
2116.960992,-2960.823768,2368.659014,-73085.510509
2116.963525,-6661.853478,444.123565,-73238.729609
2116.966058,-3404.947333,1776.494261,-73391.948708
2116.968592,-444.123565,2664.741391,-74158.044206
2116.971125,-6957.935855,888.247130,-73545.167808
2116.973659,-3997.112087,592.164754,-73545.167808
2116.976192,-3849.070898,1628.453072,-73851.606007
2116.978725,-5033.400406,1184.329507,-74617.701505
2116.981259,-9474.636058,0.000000,-75996.673402
2116.983792,-10066.800811,1776.494261,-73851.606007
2116.986326,-5921.647536,-148.041188,-74158.044206
2116.988859,-5477.523971,1184.329507,-73391.948708
2116.991392,-6069.688724,-148.041188,-73085.510509
2116.993926,-9326.594869,2812.782580,-71706.538613
2116.996459,-6957.935855,888.247130,-73851.606007
2116.998993,6069.688724,1480.411884,-75383.797003
2117.001526,14359.995275,1036.288319,-73851.606007
2117.004059,6217.729913,1036.288319,-73698.386908
2117.006593,-444.123565,592.164754,-73545.167808
2117.009126,1480.411884,1628.453072,-73698.386908
2117.011660,6513.812290,2220.617826,-72779.072310
2117.014193,13323.706956,1628.453072,-75077.358804
2117.016726,9918.759623,740.205942,-73545.167808
2117.019260,7550.100608,1480.411884,-72779.072310
2117.021801,3701.029710,-444.123565,-74311.263306
2117.024342,-5477.523971,1480.411884,-74004.825107
2117.026884,-2220.617826,1184.329507,-72625.853210
2117.029425,4441.235652,2220.617826,-73698.386908
2117.031966,7105.977043,3404.947333,-73851.606007
2117.034507,-1036.288319,-148.041188,-74311.263306
2117.037048,13767.830521,444.123565,-72319.415011
2117.039590,5329.482782,444.123565,-75077.358804
2117.042131,6809.894666,-296.082377,-77528.864398
2117.044672,6217.729913,1332.370696,-71859.757712
2117.047213,296.082377,1924.535449,-72625.853210
2117.049754,12139.377449,1184.329507,-73698.386908
2117.052296,10955.047942,2368.659014,-73851.606007
2117.054837,-888.247130,-148.041188,-74311.263306
2117.057378,-6661.853478,2220.617826,-73238.729609
2117.059919,-10066.800811,2072.576638,-73698.386908
2117.062461,-3997.112087,1036.288319,-72472.634111
2117.065002,3404.947333,2072.576638,-72779.072310
2117.067543,-4885.359217,1628.453072,-75383.797003
2117.070084,-5921.647536,2812.782580,-74004.825107
2117.072625,-11103.089130,-444.123565,-74004.825107
2117.075167,-6069.688724,1184.329507,-73698.386908
2117.077708,-4589.276840,1480.411884,-73238.729609
2117.080249,0.000000,1332.370696,-73545.167808
2117.082790,-6069.688724,3256.906145,-74311.263306
2117.085332,-1776.494261,1036.288319,-73851.606007
2117.087873,-9030.512492,2072.576638,-73085.510509
2117.090414,4441.235652,-444.123565,-73391.948708
2117.092955,-10510.924376,2072.576638,-73238.729609
2117.095496,-15988.448347,-444.123565,-75230.577904
2117.098038,-6365.771101,1628.453072,-74158.044206
2117.100579,-6365.771101,4145.153275,-72166.195912
2117.103120,-296.082377,444.123565,-75690.235202
2117.105661,-2368.659014,1480.411884,-72319.415011
2117.108203,-12583.501014,148.041188,-74617.701505
2117.110744,-6069.688724,2220.617826,-72779.072310
2117.113285,-592.164754,-444.123565,-75843.454302
2117.115826,12583.501014,1776.494261,-72625.853210
2117.118367,11695.253884,1924.535449,-72625.853210
2117.120909,3997.112087,1480.411884,-74770.920605
2117.123456,2368.659014,1776.494261,-73238.729609
2117.126004,4885.359217,1480.411884,-72166.195912
2117.128552,9178.553681,1924.535449,-74004.825107
2117.131099,9918.759623,0.000000,-73698.386908
2117.133647,-296.082377,3404.947333,-72625.853210
2117.136195,-4145.153275,1480.411884,-73238.729609
2117.138743,-1776.494261,2072.576638,-74770.920605
2117.141290,6217.729913,1184.329507,-73545.167808
2117.143838,3404.947333,444.123565,-72012.976812
2117.146386,-888.247130,888.247130,-73238.729609
2117.148933,4885.359217,296.082377,-74617.701505
2117.151481,3404.947333,592.164754,-74004.825107
2117.154029,13323.706956,3108.864956,-73391.948708
2117.156577,13175.665768,1036.288319,-73238.729609
2117.159124,3108.864956,2368.659014,-74158.044206
2117.161672,7254.018232,740.205942,-73851.606007
2117.164220,5477.523971,592.164754,-73851.606007
2117.166768,8438.347739,0.000000,-73698.386908
2117.169315,0.000000,888.247130,-74464.482406
2117.171863,-7846.182985,2220.617826,-73545.167808
2117.174411,-7550.100608,0.000000,-73545.167808
2117.176958,-2812.782580,1184.329507,-73698.386908
2117.179506,-1036.288319,148.041188,-72625.853210
2117.182054,-7254.018232,1332.370696,-73698.386908
2117.184602,-11103.089130,740.205942,-75077.358804
2117.187149,-8438.347739,1924.535449,-73391.948708
2117.189697,-4145.153275,1628.453072,-72625.853210
2117.192245,8142.265362,1776.494261,-72472.634111
2117.194793,3552.988522,1628.453072,-74004.825107
2117.197340,444.123565,0.000000,-72932.291410
2117.199888,-17764.942608,2220.617826,-74004.825107
2117.202436,-1036.288319,444.123565,-77069.207099
2117.204989,-4589.276840,740.205942,-72166.195912
2117.207541,-14508.036463,2664.741391,-70787.224015
2117.210094,-1332.370696,2220.617826,-74004.825107
2117.212647,-14804.118840,1776.494261,-75383.797003
2117.215200,-4885.359217,-296.082377,-73391.948708
2117.217753,-5181.441594,2960.823768,-73085.510509
2117.220306,-12583.501014,-1480.411884,-73238.729609
2117.222859,-6661.853478,3552.988522,-72319.415011
2117.225412,-3552.988522,148.041188,-73698.386908
2117.227964,11103.089130,1776.494261,-72779.072310
2117.230517,14804.118840,2072.576638,-74004.825107
2117.233070,5921.647536,0.000000,-73698.386908
2117.235623,-1184.329507,1184.329507,-73545.167808
2117.238176,296.082377,-592.164754,-73238.729609
2117.240729,6069.688724,1628.453072,-73238.729609
2117.243282,12139.377449,1036.288319,-73085.510509
2117.245835,13027.624579,1628.453072,-74617.701505
2117.248387,7402.059420,592.164754,-74311.263306
2117.250940,-2812.782580,-296.082377,-74770.920605
2117.253493,2960.823768,1332.370696,-72932.291410
2117.256046,3404.947333,740.205942,-74924.139704
2117.258599,444.123565,296.082377,-73391.948708
2117.261152,2516.700203,2812.782580,-72319.415011
2117.263705,3552.988522,2812.782580,-74158.044206
2117.266258,13027.624579,2812.782580,-73698.386908
2117.268810,10955.047942,148.041188,-72166.195912
2117.271363,6365.771101,2516.700203,-74311.263306
2117.273916,3404.947333,-1036.288319,-73851.606007
2117.276469,5625.565159,2368.659014,-72319.415011
2117.279022,9030.512492,296.082377,-72472.634111
2117.281575,6069.688724,2812.782580,-73391.948708
2117.284128,-2368.659014,2220.617826,-73851.606007
2117.286680,-12139.377449,-148.041188,-73851.606007
2117.289233,-5329.482782,296.082377,-72625.853210
2117.291786,-1184.329507,444.123565,-74770.920605
2117.294339,-7550.100608,740.205942,-74004.825107
2117.296892,-5773.606348,3997.112087,-73698.386908
2117.299445,-8290.306550,740.205942,-73851.606007
2117.301998,-4885.359217,888.247130,-72932.291410
2117.304551,5033.400406,-592.164754,-73545.167808
2117.307107,-2812.782580,1776.494261,-74158.044206
2117.309664,-148.041188,888.247130,-75996.673402
2117.312221,-4293.194464,148.041188,-73851.606007
2117.314777,-7254.018232,4145.153275,-72012.976812
2117.317334,6217.729913,1184.329507,-73851.606007
2117.319890,-3849.070898,0.000000,-73238.729609
2117.322447,-11103.089130,2516.700203,-73851.606007
2117.325004,-8586.388927,888.247130,-74158.044206
2117.327560,-13027.624579,-148.041188,-74158.044206
2117.330117,-4441.235652,1184.329507,-74004.825107
2117.332674,-4885.359217,2220.617826,-72472.634111
2117.335230,-8290.306550,1184.329507,-73851.606007
2117.337787,-444.123565,296.082377,-74158.044206
2117.340344,4293.194464,0.000000,-73851.606007
2117.342900,11103.089130,1184.329507,-73391.948708
2117.345457,4441.235652,592.164754,-74158.044206
2117.348014,-1776.494261,296.082377,-73085.510509
2117.350570,5773.606348,296.082377,-72932.291410
2117.353127,7846.182985,2664.741391,-73238.729609
2117.355684,14063.912898,1184.329507,-73698.386908
2117.358240,11251.130318,1480.411884,-73391.948708
2117.360797,-7105.977043,592.164754,-74311.263306
2117.363353,-3997.112087,-148.041188,-74770.920605
2117.365910,-2368.659014,3701.029710,-73238.729609
2117.368467,6069.688724,1776.494261,-71400.100414
2117.371023,8734.430116,1924.535449,-73851.606007
2117.373580,-740.205942,888.247130,-74311.263306
2117.376137,740.205942,1332.370696,-73698.386908
2117.378693,9622.677246,1628.453072,-73085.510509
2117.381250,7550.100608,-592.164754,-74311.263306
2117.383807,9326.594869,2960.823768,-73238.729609
2117.386363,6809.894666,1036.288319,-72932.291410
2117.388920,11695.253884,1480.411884,-72472.634111
2117.391477,9918.759623,888.247130,-74311.263306
2117.394033,0.000000,592.164754,-73851.606007
2117.396590,-7105.977043,2812.782580,-74311.263306
2117.399147,-11547.212695,148.041188,-74617.701505
2117.401703,-5625.565159,444.123565,-72779.072310
2117.404260,-296.082377,1776.494261,-71859.757712
2117.406816,-4737.318029,592.164754,-73085.510509
2117.409376,-7698.141797,2664.741391,-74464.482406
2117.411936,-10066.800811,-444.123565,-73698.386908
2117.414496,-4293.194464,1036.288319,-73391.948708
2117.417056,6957.935855,592.164754,-73391.948708
2117.419616,-1036.288319,592.164754,-74158.044206
2117.422175,1480.411884,1628.453072,-72625.853210
2117.424735,-12287.418637,2960.823768,-75230.577904
2117.427295,4145.153275,148.041188,-72932.291410
2117.429855,-4737.318029,888.247130,-72625.853210
2117.432415,-10510.924376,4293.194464,-73085.510509
2117.434975,-1480.411884,-2072.576638,-73851.606007
2117.437534,-15396.283594,3552.988522,-74464.482406
2117.440094,-7105.977043,-1036.288319,-75690.235202
2117.442654,-1480.411884,3997.112087,-71400.100414
2117.445214,-9326.594869,-1776.494261,-74617.701505
2117.447774,-3849.070898,3997.112087,-72625.853210
2117.450334,-3849.070898,-592.164754,-74924.139704
2117.452893,11695.253884,1184.329507,-73391.948708
2117.455453,6809.894666,4737.318029,-72625.853210
2117.458013,3701.029710,-1184.329507,-73698.386908
2117.460573,1480.411884,3997.112087,-72319.415011
2117.463133,5625.565159,-1480.411884,-74770.920605
2117.465693,13027.624579,2960.823768,-72932.291410
2117.468252,11547.212695,-1332.370696,-74158.044206
2117.470812,7698.141797,2812.782580,-74464.482406
2117.473372,-3256.906145,148.041188,-73238.729609
2117.475932,1332.370696,1332.370696,-72932.291410
2117.478492,2368.659014,2664.741391,-72625.853210
2117.481052,9030.512492,444.123565,-75537.016103
2117.483611,1480.411884,888.247130,-74464.482406
2117.486171,2516.700203,2516.700203,-74464.482406
2117.488731,5181.441594,296.082377,-73238.729609
2117.491291,10807.006753,592.164754,-73391.948708
2117.493851,14211.954086,3404.947333,-71859.757712
2117.496410,10066.800811,0.000000,-75077.358804
2117.498970,10807.006753,740.205942,-73698.386908
2117.501530,9030.512492,1480.411884,-73698.386908
2117.504090,1332.370696,1480.411884,-73391.948708
2117.506650,-8734.430116,2220.617826,-73698.386908
2117.509210,-7254.018232,148.041188,-73391.948708
2117.511736,-1036.288319,2516.700203,-72166.195912
2117.514262,2072.576638,296.082377,-73545.167808
2117.516789,-4885.359217,1480.411884,-74770.920605
2117.519315,-8142.265362,2368.659014,-74158.044206
2117.521842,-12879.583391,-148.041188,-74464.482406
2117.524368,-6513.812290,1332.370696,-72932.291410
2117.526894,-2664.741391,592.164754,-73238.729609
2117.529421,1628.453072,0.000000,-72319.415011
2117.531947,-2960.823768,3256.906145,-75996.673402
2117.534473,-4145.153275,148.041188,-73851.606007
2117.537000,-3552.988522,1184.329507,-71859.757712
2117.539526,-5625.565159,1480.411884,-72932.291410
2117.542052,-6365.771101,740.205942,-74464.482406
2117.544579,-14656.077652,1480.411884,-73545.167808
2117.547105,-6513.812290,2368.659014,-72932.291410
2117.549632,-7994.224174,1332.370696,-73698.386908
2117.552158,-6217.729913,1036.288319,-73698.386908
2117.554684,-6069.688724,296.082377,-72932.291410
2117.557211,-7254.018232,2220.617826,-73545.167808
2117.559737,0.000000,-296.082377,-74617.701505
2117.562263,11251.130318,1184.329507,-74311.263306
2117.564790,7994.224174,3997.112087,-71706.538613
2117.567316,6809.894666,888.247130,-73851.606007
2117.569843,2664.741391,1184.329507,-73698.386908
2117.572369,5921.647536,888.247130,-72932.291410
2117.574895,11991.336260,1480.411884,-73698.386908
2117.577422,9474.636058,296.082377,-74770.920605
2117.579948,6217.729913,2664.741391,-72472.634111
2117.582474,7698.141797,1776.494261,-74158.044206
2117.585001,-1332.370696,444.123565,-73545.167808
2117.587527,9030.512492,1628.453072,-73698.386908
2117.590054,6661.853478,1332.370696,-73545.167808
2117.592580,-1332.370696,0.000000,-73851.606007
2117.595106,6513.812290,1628.453072,-74004.825107
2117.597633,6957.935855,888.247130,-73851.606007
2117.600159,9326.594869,1184.329507,-72472.634111
2117.602685,13471.748144,2072.576638,-72779.072310
2117.605212,7105.977043,592.164754,-74158.044206
2117.607738,7254.018232,-296.082377,-74004.825107
2117.610265,5773.606348,2516.700203,-73085.510509
2117.612800,-3701.029710,-740.205942,-74770.920605
2117.615336,-9030.512492,3404.947333,-73545.167808
2117.617872,-9178.553681,1480.411884,-73238.729609
2117.620407,-1480.411884,1628.453072,-72319.415011
2117.622943,3701.029710,444.123565,-73085.510509
2117.625479,-8142.265362,1924.535449,-74311.263306
2117.628014,-12435.459826,1480.411884,-73851.606007
2117.630550,-12435.459826,-148.041188,-74770.920605
2117.633086,-8734.430116,1332.370696,-72319.415011
2117.635621,-1924.535449,1924.535449,-71400.100414
2117.638157,-2516.700203,2220.617826,-74311.263306
2117.640693,8438.347739,1776.494261,-74770.920605
2117.643228,-7994.224174,1628.453072,-72625.853210
2117.645764,-12435.459826,1776.494261,-74311.263306
2117.648300,5773.606348,-1184.329507,-74311.263306
2117.650835,-12287.418637,592.164754,-71553.319513
2117.653371,-8586.388927,2960.823768,-75690.235202
2117.655907,-1184.329507,2072.576638,-71859.757712
2117.658442,-13471.748144,1628.453072,-74617.701505
2117.660978,-5181.441594,-592.164754,-73391.948708
2117.663514,-7846.182985,2960.823768,-73545.167808
2117.666050,-2516.700203,-1628.453072,-74617.701505
2117.668585,5625.565159,2960.823768,-71859.757712
2117.671121,11251.130318,888.247130,-72625.853210
2117.673657,9770.718434,1184.329507,-75077.358804
2117.676192,-2072.576638,-1332.370696,-75077.358804
2117.678728,5625.565159,1776.494261,-72319.415011
2117.681264,7846.182985,1332.370696,-72012.976812
2117.683799,11843.295072,0.000000,-75077.358804
2117.686335,6513.812290,2664.741391,-72625.853210
2117.688871,-6069.688724,0.000000,-74311.263306
2117.691406,1628.453072,3256.906145,-73545.167808
2117.693942,2812.782580,2516.700203,-74464.482406
2117.696478,5477.523971,-296.082377,-73085.510509
2117.699013,-2516.700203,1184.329507,-71859.757712
2117.701549,4737.318029,-148.041188,-75383.797003
2117.704085,7402.059420,3701.029710,-74464.482406
2117.706620,11695.253884,1036.288319,-72932.291410
2117.709156,14508.036463,1332.370696,-73238.729609
2117.711692,9918.759623,1036.288319,-74158.044206
2117.714236,9770.718434,592.164754,-73698.386908
2117.716779,6069.688724,2368.659014,-73085.510509
2117.719323,-4293.194464,296.082377,-74311.263306
2117.721867,-3997.112087,2072.576638,-72932.291410
2117.724411,-9474.636058,1036.288319,-73545.167808
2117.726955,-444.123565,2516.700203,-72012.976812
2117.729499,444.123565,-1036.288319,-73698.386908
2117.732043,-3701.029710,1480.411884,-73698.386908
2117.734586,-8586.388927,1628.453072,-74311.263306
2117.737130,-13619.789333,444.123565,-75843.454302
2117.739674,-11695.253884,1924.535449,-72166.195912
2117.742218,10807.006753,1924.535449,-71553.319513
2117.744762,5033.400406,888.247130,-74158.044206
2117.747306,-2664.741391,1628.453072,-75383.797003
2117.749850,-2516.700203,2220.617826,-75077.358804
2117.752393,-148.041188,-148.041188,-72625.853210
2117.754937,-10362.883188,740.205942,-73698.386908
2117.757481,-4737.318029,0.000000,-73238.729609
2117.760025,-14063.912898,2664.741391,-73085.510509
2117.762569,-10214.842000,888.247130,-74924.139704
2117.765113,-2960.823768,1184.329507,-73851.606007
2117.767657,-10955.047942,592.164754,-72932.291410
2117.770200,-8142.265362,1776.494261,-72779.072310
2117.772744,-2960.823768,1628.453072,-73851.606007
2117.775288,4441.235652,1332.370696,-72779.072310
2117.777832,10362.883188,1184.329507,-72779.072310
2117.780376,6217.729913,1776.494261,-74464.482406
2117.782920,-296.082377,2812.782580,-73698.386908
2117.785464,3701.029710,-296.082377,-73851.606007
2117.788007,8586.388927,2516.700203,-71553.319513
2117.790551,10066.800811,-888.247130,-74158.044206
2117.793095,4885.359217,2220.617826,-74464.482406
2117.795639,-740.205942,2220.617826,-72932.291410
2117.798183,1332.370696,2516.700203,-74617.701505
2117.800727,5477.523971,0.000000,-72472.634111
2117.803271,3997.112087,-444.123565,-73085.510509
2117.805814,1332.370696,1776.494261,-73391.948708
2117.808358,-1036.288319,1036.288319,-75230.577904
2117.810902,444.123565,2516.700203,-73238.729609
2117.813446,9474.636058,2812.782580,-72166.195912
2117.815961,14804.118840,1924.535449,-73238.729609
2117.818477,9622.677246,1184.329507,-75077.358804
2117.820992,10214.842000,-1036.288319,-73698.386908
2117.823507,8734.430116,2072.576638,-73698.386908
2117.826023,-2812.782580,-296.082377,-74464.482406
2117.828538,-8142.265362,3849.070898,-74158.044206
2117.831054,-10214.842000,740.205942,-73238.729609
2117.833569,-2960.823768,1184.329507,-72625.853210
2117.836084,3404.947333,296.082377,-73238.729609
2117.838600,-7550.100608,888.247130,-74464.482406
2117.841115,-11695.253884,2812.782580,-74924.139704
2117.843631,-12435.459826,-296.082377,-75383.797003
2117.846146,-4293.194464,1924.535449,-72166.195912
2117.848661,5625.565159,444.123565,-72319.415011
2117.851177,-3552.988522,1480.411884,-72779.072310
2117.853692,-1776.494261,2812.782580,-75077.358804
2117.856207,1184.329507,1628.453072,-74004.825107
2117.858723,-11695.253884,2516.700203,-73391.948708
2117.861238,2072.576638,-1184.329507,-74617.701505
2117.863754,-8142.265362,-444.123565,-71400.100414
2117.866269,-11695.253884,3256.906145,-73391.948708
2117.868784,-1480.411884,1184.329507,-74770.920605
2117.871300,-11695.253884,2368.659014,-73851.606007
2117.873815,-4589.276840,-296.082377,-72166.195912
2117.876331,-5625.565159,3997.112087,-73698.386908
2117.878846,1628.453072,-1332.370696,-75230.577904
2117.881361,11251.130318,2072.576638,-72166.195912
2117.883877,8142.265362,2960.823768,-73085.510509
2117.886392,4589.276840,592.164754,-74464.482406
2117.888907,3997.112087,2516.700203,-73085.510509
2117.891423,4885.359217,-148.041188,-73238.729609
2117.893938,12435.459826,1332.370696,-71859.757712
2117.896454,9474.636058,1184.329507,-74311.263306
2117.898969,2516.700203,1480.411884,-72779.072310
2117.901484,3701.029710,2220.617826,-73545.167808
2117.904000,2812.782580,1184.329507,-73085.510509
2117.906515,4589.276840,1924.535449,-72166.195912
2117.909030,1332.370696,-1036.288319,-72472.634111
2117.911546,5921.647536,2220.617826,-73698.386908
2117.914061,7105.977043,592.164754,-75077.358804
2117.916589,9918.759623,148.041188,-74464.482406
2117.919117,14211.954086,4145.153275,-72779.072310
2117.921645,13767.830521,0.000000,-74158.044206
2117.924173,11251.130318,592.164754,-73085.510509
2117.926701,8290.306550,296.082377,-73085.510509
2117.929228,-1628.453072,2664.741391,-73391.948708
2117.931756,-8586.388927,2072.576638,-74004.825107
2117.934284,-8438.347739,1628.453072,-73698.386908
2117.936812,592.164754,2960.823768,-71859.757712
2117.939340,3404.947333,-740.205942,-74004.825107
2117.941868,-4441.235652,1924.535449,-74004.825107
2117.944396,-10362.883188,2220.617826,-75077.358804
2117.946924,-13471.748144,-148.041188,-74311.263306
2117.949451,-10955.047942,1480.411884,-74311.263306
2117.951979,-444.123565,1332.370696,-72932.291410
2117.954507,296.082377,2072.576638,-73238.729609
2117.957035,1036.288319,1480.411884,-75230.577904
2117.959563,-5033.400406,1776.494261,-72779.072310
2117.962091,888.247130,592.164754,-73238.729609
2117.964619,-9178.553681,148.041188,-72932.291410
2117.967147,-9030.512492,1480.411884,-75077.358804
2117.969674,-11547.212695,296.082377,-71400.100414
2117.972202,-11399.171507,2664.741391,-73085.510509
2117.974730,-3404.947333,1036.288319,-74004.825107
2117.977258,-6365.771101,2072.576638,-74311.263306
2117.979786,-6513.812290,-148.041188,-74770.920605
2117.982314,4441.235652,2072.576638,-73238.729609
2117.984842,9622.677246,-2664.741391,-73085.510509
2117.987370,5921.647536,2516.700203,-73545.167808
2117.989897,4145.153275,-148.041188,-73698.386908
2117.992425,2368.659014,3997.112087,-73698.386908
2117.994953,7254.018232,-296.082377,-73851.606007
2117.997481,13323.706956,888.247130,-72472.634111
2118.000009,7402.059420,888.247130,-72625.853210
2118.002537,7254.018232,148.041188,-75077.358804
2118.005065,1776.494261,2960.823768,-73851.606007
2118.007593,3108.864956,296.082377,-73085.510509
2118.010120,5033.400406,1776.494261,-73851.606007
2118.012648,5773.606348,-296.082377,-74464.482406
2118.015176,8290.306550,1036.288319,-72625.853210
2118.017715,4145.153275,1924.535449,-73851.606007
2118.020253,13619.789333,148.041188,-74924.139704
2118.022792,7402.059420,2960.823768,-73391.948708
2118.025330,8586.388927,1776.494261,-74158.044206
2118.027869,14508.036463,1036.288319,-73851.606007
2118.030407,7550.100608,1036.288319,-74158.044206
2118.032946,-2368.659014,-888.247130,-72625.853210
2118.035484,-9622.677246,3256.906145,-74158.044206
2118.038023,-12435.459826,148.041188,-74770.920605
2118.040561,-3256.906145,2516.700203,-72932.291410
2118.043100,1628.453072,740.205942,-71859.757712
2118.045638,-3701.029710,1924.535449,-72166.195912
2118.048177,-10214.842000,1776.494261,-74464.482406
2118.050716,-12435.459826,888.247130,-74464.482406
2118.053254,-6513.812290,1924.535449,-73545.167808
2118.055793,-6069.688724,-148.041188,-73085.510509
2118.058331,-444.123565,740.205942,-74311.263306
2118.060870,-3849.070898,3404.947333,-72779.072310
2118.063408,-4885.359217,1628.453072,-73698.386908
2118.065947,-2664.741391,1184.329507,-72932.291410
2118.068485,-296.082377,1924.535449,-74158.044206
2118.071024,-7105.977043,740.205942,-72012.976812
2118.073562,-13619.789333,296.082377,-74311.263306
2118.076101,-11251.130318,1184.329507,-71859.757712
2118.078639,-9178.553681,1332.370696,-72779.072310
2118.081178,-6069.688724,3404.947333,-73851.606007
2118.083716,-1036.288319,592.164754,-74158.044206
2118.086255,6365.771101,888.247130,-73238.729609
2118.088794,13915.871710,296.082377,-73851.606007
2118.091332,3256.906145,296.082377,-74617.701505
2118.093871,-2220.617826,1184.329507,-74004.825107
2118.096409,5033.400406,2072.576638,-73238.729609
2118.098948,11103.089130,1924.535449,-73391.948708
2118.101486,14804.118840,0.000000,-74004.825107
2118.104025,6957.935855,1036.288319,-72625.853210
2118.106563,-2368.659014,1628.453072,-73238.729609
2118.109102,2960.823768,2516.700203,-74924.139704
2118.111640,-7402.059420,-592.164754,-73391.948708
2118.114179,-148.041188,740.205942,-73391.948708
2118.116717,15544.324782,2220.617826,-72625.853210
2118.119231,4885.359217,1776.494261,-72932.291410
2118.121743,2368.659014,1776.494261,-74311.263306
2118.124256,18801.230927,1776.494261,-73238.729609
2118.126769,-740.205942,-1184.329507,-75230.577904
2118.129282,13619.789333,592.164754,-74158.044206
2118.131794,8586.388927,3849.070898,-71246.881314
2118.134307,4737.318029,592.164754,-73238.729609
2118.136820,-5033.400406,888.247130,-73085.510509
2118.139333,-12287.418637,1036.288319,-73085.510509
2118.141846,-3849.070898,592.164754,-73851.606007
2118.144358,-1480.411884,0.000000,-74311.263306
2118.146871,-5921.647536,2072.576638,-72625.853210
2118.149384,-5033.400406,1924.535449,-72625.853210
2118.151897,-13027.624579,1776.494261,-74464.482406
2118.154409,-7994.224174,2368.659014,-73698.386908
2118.156922,-6809.894666,-592.164754,-74464.482406
2118.159435,4441.235652,2516.700203,-72932.291410
2118.161948,1480.411884,-592.164754,-73851.606007
2118.164460,-7846.182985,2072.576638,-72779.072310
2118.166973,-3256.906145,2516.700203,-72166.195912
2118.169486,2812.782580,1036.288319,-73698.386908
2118.171999,-6069.688724,1776.494261,-74617.701505
2118.174511,-12731.542202,-444.123565,-71553.319513
2118.177024,-10362.883188,3997.112087,-73851.606007
2118.179537,-13323.706956,-888.247130,-74464.482406
2118.182050,-7994.224174,444.123565,-74464.482406
2118.184562,-4737.318029,1924.535449,-71400.100414
2118.187075,5773.606348,2220.617826,-74158.044206
2118.189588,16284.530724,148.041188,-73545.167808
2118.192101,2072.576638,1480.411884,-73545.167808
2118.194614,888.247130,-592.164754,-74004.825107
2118.197126,1332.370696,296.082377,-74924.139704
2118.199639,4293.194464,2368.659014,-73085.510509
2118.202152,16136.489536,1184.329507,-72319.415011
2118.204665,8882.471304,1480.411884,-73391.948708
2118.207177,-2664.741391,592.164754,-73238.729609
2118.209690,-1036.288319,3108.864956,-73698.386908
2118.212203,-1776.494261,-444.123565,-74770.920605
2118.214716,4145.153275,1628.453072,-74311.263306
2118.217228,-2072.576638,1924.535449,-71859.757712
2118.219755,11843.295072,1036.288319,-73085.510509
2118.222282,7402.059420,2664.741391,-73085.510509
2118.224808,11843.295072,1184.329507,-74924.139704
2118.227335,14952.160028,296.082377,-73238.729609
2118.229861,8734.430116,1332.370696,-74158.044206
2118.232388,10362.883188,0.000000,-74464.482406
2118.234914,3849.070898,2072.576638,-73698.386908
2118.237441,-5921.647536,592.164754,-72932.291410
2118.239968,-10214.842000,1924.535449,-74158.044206
2118.242494,-1332.370696,1332.370696,-74311.263306
2118.245021,444.123565,1480.411884,-72932.291410
2118.247547,-2664.741391,444.123565,-74158.044206
2118.250074,-9030.512492,888.247130,-74158.044206
2118.252600,-15100.201217,2072.576638,-74004.825107
2118.255127,-6809.894666,1184.329507,-72472.634111
2118.257654,4589.276840,888.247130,-73851.606007
2118.260180,3108.864956,888.247130,-74770.920605
2118.262707,-1480.411884,1776.494261,-72779.072310
2118.265233,-14211.954086,1036.288319,-74464.482406
2118.267760,1036.288319,444.123565,-74924.139704
2118.270286,-13175.665768,3108.864956,-71246.881314
2118.272813,-9622.677246,592.164754,-72625.853210
2118.275340,-6809.894666,1628.453072,-73238.729609
2118.277866,-13471.748144,1332.370696,-74158.044206
2118.280393,-3849.070898,1924.535449,-73238.729609
2118.282919,-10214.842000,3552.988522,-72319.415011
2118.285446,-4441.235652,-1628.453072,-75230.577904
2118.287972,5329.482782,3404.947333,-72472.634111
2118.290499,13915.871710,-592.164754,-74004.825107
2118.293026,7550.100608,2812.782580,-73085.510509
2118.295552,2072.576638,-888.247130,-74924.139704
2118.298079,2664.741391,2664.741391,-72319.415011
2118.300605,7994.224174,2812.782580,-72319.415011
2118.303132,12435.459826,-1776.494261,-75230.577904
2118.305658,9622.677246,1480.411884,-72166.195912
2118.308185,-1480.411884,148.041188,-74158.044206
2118.310712,-4885.359217,2516.700203,-75077.358804
2118.313238,-1332.370696,2072.576638,-73545.167808
2118.315765,592.164754,444.123565,-72012.976812
2118.318291,1184.329507,1628.453072,-72625.853210
2118.320830,8438.347739,1628.453072,-75230.577904
2118.323368,9178.553681,1924.535449,-72932.291410
2118.325907,12435.459826,592.164754,-73851.606007
2118.328445,14952.160028,3701.029710,-74158.044206
2118.330983,8586.388927,-148.041188,-74311.263306
2118.333522,7698.141797,2812.782580,-73851.606007
2118.336060,-5773.606348,-296.082377,-72932.291410
2118.338599,-11399.171507,1184.329507,-74311.263306
2118.341137,-7846.182985,592.164754,-72166.195912
2118.343676,-592.164754,2516.700203,-73545.167808
2118.346214,4589.276840,1628.453072,-73238.729609
2118.348753,-6513.812290,296.082377,-74617.701505
2118.351291,-10214.842000,1628.453072,-73085.510509
2118.353830,-11843.295072,740.205942,-73698.386908
2118.356368,-12139.377449,1480.411884,-74158.044206
2118.358906,888.247130,2368.659014,-72932.291410
2118.361445,8734.430116,444.123565,-73545.167808
2118.363983,-1480.411884,1184.329507,-73851.606007
2118.366522,-7994.224174,1924.535449,-75230.577904
2118.369060,-2664.741391,2516.700203,-72932.291410
2118.371599,-16876.695478,2368.659014,-72472.634111
2118.374137,-10066.800811,-888.247130,-74158.044206
2118.376676,-11991.336260,3256.906145,-71859.757712
2118.379214,-12139.377449,-740.205942,-74311.263306
2118.381752,-5921.647536,1628.453072,-74311.263306
2118.384291,-2664.741391,1184.329507,-73698.386908
2118.386829,5033.400406,148.041188,-74158.044206
2118.389368,11547.212695,1332.370696,-72779.072310
2118.391906,5477.523971,2072.576638,-74004.825107
2118.394445,1924.535449,592.164754,-73698.386908
2118.396983,0.000000,1776.494261,-72779.072310
2118.399522,8734.430116,2516.700203,-73238.729609
2118.402069,15544.324782,-1480.411884,-73851.606007
2118.404616,4145.153275,1924.535449,-72472.634111
2118.407163,-740.205942,1776.494261,-72932.291410
2118.409710,4293.194464,592.164754,-74770.920605
2118.412258,-3108.864956,2220.617826,-72932.291410
2118.414805,3552.988522,1332.370696,-72779.072310
2118.417352,7846.182985,1480.411884,-73851.606007
2118.419899,8734.430116,740.205942,-74464.482406
2118.422446,10510.924376,-148.041188,-72012.976812
2118.424994,10362.883188,2516.700203,-72625.853210
2118.427541,10658.965565,1036.288319,-74158.044206
2118.430088,11399.171507,1184.329507,-74158.044206
2118.432635,8142.265362,1924.535449,-73851.606007
2118.435183,-148.041188,296.082377,-73545.167808
2118.437730,-6217.729913,2072.576638,-73545.167808
2118.440277,-11843.295072,444.123565,-73851.606007
2118.442824,-2072.576638,444.123565,-73851.606007
2118.445371,-2664.741391,592.164754,-73851.606007
2118.447919,-4885.359217,1036.288319,-73085.510509
2118.450466,-10362.883188,3404.947333,-72779.072310
2118.453013,-12139.377449,-1184.329507,-75077.358804
2118.455560,-5477.523971,2812.782580,-73851.606007
2118.458107,-1924.535449,-1332.370696,-73391.948708
2118.460655,-1480.411884,1628.453072,-75230.577904
2118.463202,-2516.700203,1036.288319,-74004.825107
2118.465749,-148.041188,-148.041188,-73391.948708
2118.468296,-7698.141797,4737.318029,-71553.319513
2118.470844,-3997.112087,-444.123565,-74924.139704
2118.473391,-13619.789333,-740.205942,-73085.510509
2118.475938,-12879.583391,3552.988522,-74924.139704
2118.478485,-9326.594869,-148.041188,-73545.167808
2118.481032,-10066.800811,2072.576638,-72779.072310
2118.483580,-3552.988522,1332.370696,-72166.195912
2118.486127,7994.224174,3108.864956,-73851.606007
2118.488674,15840.407159,-148.041188,-74311.263306
2118.491221,8882.471304,3108.864956,-73238.729609
2118.493768,1924.535449,-1480.411884,-75077.358804
2118.496316,-1332.370696,3997.112087,-73698.386908
2118.498863,6957.935855,-148.041188,-75230.577904
2118.501410,15988.448347,444.123565,-73238.729609
2118.503965,12731.542202,2072.576638,-71859.757712
2118.506520,10510.924376,2220.617826,-74158.044206
2118.509075,-1184.329507,1480.411884,-74311.263306
2118.511630,-2516.700203,1184.329507,-74004.825107
2118.514185,8586.388927,1184.329507,-73085.510509
2118.516741,-3108.864956,-444.123565,-73545.167808
2118.519296,592.164754,1776.494261,-72625.853210
2118.521851,16728.654289,0.000000,-73238.729609
2118.524406,11399.171507,1036.288319,-75537.016103
2118.526961,14211.954086,1332.370696,-73238.729609
2118.529516,8882.471304,-592.164754,-72012.976812
2118.532071,5477.523971,1628.453072,-73391.948708
2118.534626,-4145.153275,-444.123565,-75077.358804
2118.537181,-10510.924376,1924.535449,-73851.606007
2118.539736,-6809.894666,1184.329507,-71706.538613
2118.542291,-296.082377,2220.617826,-73698.386908
2118.544846,-740.205942,888.247130,-74004.825107
2118.547401,-7254.018232,1036.288319,-72625.853210
2118.549957,-12731.542202,1332.370696,-73851.606007
2118.552512,-11547.212695,-1332.370696,-75077.358804
2118.555067,-3404.947333,3108.864956,-72166.195912
2118.557622,4737.318029,592.164754,-72625.853210
2118.560177,444.123565,2368.659014,-74311.263306
2118.562732,-4885.359217,1480.411884,-74924.139704
2118.565287,-4145.153275,888.247130,-72625.853210
2118.567842,-3997.112087,1628.453072,-73238.729609
2118.570397,-10066.800811,-444.123565,-73698.386908
2118.572952,-9178.553681,1332.370696,-73545.167808
2118.575507,-11695.253884,592.164754,-74158.044206
2118.578062,-5921.647536,1184.329507,-74617.701505
2118.580617,-7402.059420,2072.576638,-73085.510509
2118.583173,1036.288319,1184.329507,-74158.044206
2118.585728,3552.988522,888.247130,-73851.606007
2118.588283,11843.295072,148.041188,-74464.482406
2118.590838,2960.823768,2220.617826,-73391.948708
2118.593393,1480.411884,2516.700203,-73698.386908
2118.595948,6661.853478,1184.329507,-74158.044206
2118.598503,10658.965565,1332.370696,-74311.263306
2118.601058,9030.512492,592.164754,-72472.634111
2118.603613,6217.729913,0.000000,-73545.167808
2118.606141,-3997.112087,592.164754,-73851.606007
2118.608670,-8290.306550,1924.535449,-73851.606007
2118.611198,9326.594869,3404.947333,-73545.167808
2118.613726,9918.759623,0.000000,-71859.757712
2118.616254,2220.617826,296.082377,-73851.606007
2118.618782,14359.995275,-592.164754,-72166.195912
2118.621311,7846.182985,1924.535449,-72932.291410
2118.623839,9622.677246,296.082377,-76149.892501
2118.626367,13619.789333,2220.617826,-72012.976812
2118.628895,8586.388927,296.082377,-71859.757712
2118.631423,6365.771101,1776.494261,-74004.825107
2118.633952,-4885.359217,2368.659014,-74311.263306
2118.636480,-14211.954086,-740.205942,-73851.606007
2118.639008,-2812.782580,2368.659014,-73238.729609
2118.641536,-1184.329507,-1480.411884,-74158.044206
2118.644064,-4145.153275,2664.741391,-73545.167808
2118.646593,-7254.018232,2220.617826,-72779.072310
2118.649121,-12879.583391,2812.782580,-73545.167808
2118.651649,-7254.018232,296.082377,-74004.825107
2118.654177,-7105.977043,592.164754,-73391.948708
2118.656705,3108.864956,1332.370696,-74617.701505
2118.659234,-8734.430116,1184.329507,-74004.825107
2118.661762,-7105.977043,2812.782580,-72932.291410
2118.664290,-148.041188,740.205942,-72319.415011
2118.666818,-15988.448347,3849.070898,-72932.291410
2118.669346,-7105.977043,444.123565,-74617.701505
2118.671875,-12879.583391,1628.453072,-71246.881314
2118.674403,-13767.830521,148.041188,-74311.263306
2118.676931,-6513.812290,2220.617826,-74464.482406
2118.679459,-5033.400406,444.123565,-73851.606007
2118.681987,8734.430116,1628.453072,-72319.415011
2118.684516,15248.242405,1776.494261,-72625.853210
2118.687044,4737.318029,148.041188,-74617.701505
2118.689572,-592.164754,2812.782580,-72625.853210
2118.692100,592.164754,-888.247130,-74158.044206
2118.694628,7254.018232,2960.823768,-73391.948708
2118.697157,12731.542202,-888.247130,-73545.167808
2118.699685,17320.819043,2812.782580,-72625.853210
2118.702213,2664.741391,-148.041188,-74311.263306
2118.704741,1332.370696,0.000000,-74004.825107
2118.707281,592.164754,2812.782580,-74464.482406
2118.709821,-1036.288319,740.205942,-74924.139704
2118.712361,9178.553681,148.041188,-73085.510509
2118.714900,6809.894666,1628.453072,-73851.606007
2118.717440,14804.118840,-148.041188,-75230.577904
2118.719980,9326.594869,4145.153275,-72932.291410
2118.722520,10362.883188,-592.164754,-74924.139704
2118.725060,7994.224174,2812.782580,-73085.510509
2118.727600,740.205942,-740.205942,-74464.482406
2118.730139,-9622.677246,3552.988522,-72472.634111
2118.732679,-11251.130318,-148.041188,-73698.386908
2118.735219,-4145.153275,592.164754,-73391.948708
2118.737759,-1184.329507,1036.288319,-74464.482406
2118.740299,-6365.771101,888.247130,-74464.482406
2118.742839,-10955.047942,3108.864956,-72012.976812
2118.745378,-11547.212695,-444.123565,-74158.044206
2118.747918,-4293.194464,2220.617826,-73698.386908
2118.750458,-740.205942,-296.082377,-73085.510509
2118.752998,1924.535449,3256.906145,-73698.386908
2118.755538,592.164754,1184.329507,-74464.482406
2118.758077,-1332.370696,592.164754,-75077.358804
2118.760617,-11103.089130,1924.535449,-72166.195912
2118.763157,-6217.729913,1184.329507,-73545.167808
2118.765697,-10214.842000,1776.494261,-72779.072310
2118.768237,-14804.118840,1628.453072,-73085.510509
2118.770777,-7698.141797,592.164754,-73698.386908
2118.773316,-9030.512492,1776.494261,-75383.797003
2118.775856,1036.288319,592.164754,-73545.167808
2118.778396,6661.853478,1036.288319,-72472.634111
2118.780936,12583.501014,444.123565,-74311.263306
2118.783476,5329.482782,1332.370696,-73698.386908
2118.786016,740.205942,444.123565,-74311.263306
2118.788555,4885.359217,1924.535449,-73085.510509
2118.791095,10807.006753,592.164754,-73545.167808
2118.793635,9030.512492,444.123565,-73698.386908
2118.796175,3108.864956,1184.329507,-72472.634111
2118.798715,-1776.494261,2960.823768,-73391.948708
2118.801255,-1776.494261,148.041188,-73085.510509
2118.803794,2812.782580,1776.494261,-73545.167808
2118.806334,-1924.535449,1036.288319,-72472.634111
2118.808884,3552.988522,0.000000,-74464.482406
2118.811434,11695.253884,2960.823768,-73698.386908
2118.813983,7550.100608,148.041188,-73391.948708
2118.816533,18801.230927,4293.194464,-73238.729609
2118.819082,7994.224174,-592.164754,-73698.386908
2118.821632,7402.059420,2664.741391,-73698.386908
2118.824182,-3849.070898,0.000000,-72932.291410
2118.826731,-6957.935855,2220.617826,-74311.263306
2118.829281,-7698.141797,2072.576638,-71859.757712
2118.831831,-1184.329507,1332.370696,-72932.291410
2118.834380,1036.288319,2516.700203,-72779.072310
2118.836930,-6217.729913,1332.370696,-75383.797003
2118.839480,-9326.594869,1628.453072,-73545.167808
2118.842029,-10066.800811,-148.041188,-72932.291410
2118.844579,2368.659014,2220.617826,-74464.482406
2118.847129,3108.864956,-296.082377,-74464.482406
2118.849678,-3552.988522,2220.617826,-73545.167808
2118.852228,-2072.576638,1480.411884,-73085.510509
2118.854778,-6069.688724,148.041188,-74158.044206
2118.857327,-9918.759623,2960.823768,-72932.291410
2118.859877,-10214.842000,0.000000,-73545.167808
2118.862427,-14804.118840,1776.494261,-73085.510509
2118.864976,-13619.789333,740.205942,-74464.482406
2118.867526,-10362.883188,1776.494261,-73391.948708
2118.870076,-3849.070898,2220.617826,-73545.167808
2118.872625,5329.482782,-740.205942,-73085.510509
2118.875175,12583.501014,2812.782580,-72625.853210
2118.877724,6957.935855,592.164754,-73085.510509
2118.880274,1332.370696,296.082377,-75383.797003
2118.882824,-2220.617826,2368.659014,-74004.825107
2118.885373,8290.306550,1036.288319,-72779.072310
2118.887923,15248.242405,888.247130,-72166.195912
2118.890473,13619.789333,1332.370696,-73238.729609
2118.893022,10362.883188,-444.123565,-73698.386908
2118.895572,148.041188,2960.823768,-72779.072310
2118.898122,3997.112087,0.000000,-74924.139704
2118.900671,9622.677246,-296.082377,-72166.195912
2118.903221,0.000000,2516.700203,-72625.853210
2118.905771,13471.748144,-1480.411884,-74311.263306
2118.908320,7846.182985,2516.700203,-74770.920605
2118.910845,16580.613101,1480.411884,-73085.510509
2118.913370,15988.448347,1924.535449,-72932.291410
2118.915895,8734.430116,-1184.329507,-75383.797003
2118.918419,2220.617826,2960.823768,-74311.263306
2118.920944,-8290.306550,592.164754,-72932.291410
2118.923469,-10214.842000,444.123565,-73698.386908
2118.925994,-444.123565,1628.453072,-73085.510509
2118.928518,740.205942,0.000000,-74464.482406
2118.931043,-3701.029710,2516.700203,-73698.386908
2118.933568,-10066.800811,1036.288319,-75537.016103
2118.936093,-13915.871710,2072.576638,-73085.510509
2118.938618,-8290.306550,-444.123565,-73085.510509
2118.941142,2960.823768,3701.029710,-73238.729609
2118.943667,4145.153275,-888.247130,-74158.044206
2118.946192,1184.329507,1628.453072,-74158.044206
2118.948717,-13767.830521,3404.947333,-73085.510509
2118.951241,740.205942,-1036.288319,-75537.016103
2118.953766,-9326.594869,1628.453072,-74004.825107
2118.956291,-17468.860231,1480.411884,-71246.881314
2118.958816,-3997.112087,2960.823768,-72012.976812
2118.961340,-15100.201217,296.082377,-74770.920605
2118.963865,-4441.235652,1184.329507,-73545.167808
2118.966390,3552.988522,1776.494261,-73085.510509
2118.968915,15248.242405,444.123565,-74004.825107
2118.971439,6217.729913,4441.235652,-70940.443115
2118.973964,3108.864956,-1480.411884,-75843.454302
2118.976489,0.000000,4441.235652,-72012.976812
2118.979014,8290.306550,-1628.453072,-76609.549800
2118.981539,12287.418637,2960.823768,-72012.976812
2118.984063,11251.130318,1628.453072,-73545.167808
2118.986588,1184.329507,1628.453072,-74464.482406
2118.989113,444.123565,2220.617826,-73391.948708
2118.991638,-2072.576638,444.123565,-74311.263306
2118.994162,5625.565159,2516.700203,-73698.386908
2118.996687,11103.089130,444.123565,-73698.386908
2118.999212,10066.800811,-148.041188,-72472.634111
2119.001737,14211.954086,1184.329507,-75537.016103
2119.004261,12287.418637,2072.576638,-75077.358804
2119.006786,12435.459826,592.164754,-74158.044206
2119.009311,8142.265362,1184.329507,-71859.757712
2119.011849,0.000000,1036.288319,-74464.482406
2119.014387,-9326.594869,1480.411884,-73698.386908
2119.016924,-8882.471304,0.000000,-73851.606007
2119.019462,-3701.029710,1924.535449,-72932.291410
2119.022000,-444.123565,592.164754,-74311.263306
2119.024538,-5773.606348,2220.617826,-73545.167808
2119.027075,-11103.089130,1924.535449,-74004.825107
2119.029613,-10214.842000,1480.411884,-72932.291410
2119.032151,-1036.288319,444.123565,-72932.291410
2119.034689,888.247130,1924.535449,-72472.634111
2119.037226,2072.576638,1628.453072,-73851.606007
2119.039764,444.123565,1332.370696,-76303.111601
2119.042302,592.164754,2072.576638,-75230.577904
2119.044840,-10214.842000,1628.453072,-72012.976812
2119.047378,-11843.295072,-296.082377,-73085.510509
2119.049915,-9474.636058,2368.659014,-73085.510509
2119.052453,-12879.583391,148.041188,-73085.510509
2119.054991,-8290.306550,2072.576638,-73698.386908
2119.057529,-4441.235652,1480.411884,-74770.920605
2119.060066,3404.947333,-148.041188,-74004.825107
2119.062604,10510.924376,1924.535449,-72166.195912
2119.065142,9178.553681,1776.494261,-73391.948708
2119.067680,2812.782580,1036.288319,-74464.482406
2119.070217,1628.453072,2220.617826,-74004.825107
2119.072755,5625.565159,592.164754,-72932.291410
2119.075293,14508.036463,148.041188,-73698.386908
2119.077831,8734.430116,1480.411884,-72932.291410
2119.080369,1628.453072,-1036.288319,-73085.510509
2119.082906,2812.782580,2664.741391,-74617.701505
2119.085444,-4293.194464,1036.288319,-74004.825107
2119.087982,4293.194464,148.041188,-73851.606007
2119.090520,8142.265362,1184.329507,-73085.510509
2119.093057,592.164754,1776.494261,-72472.634111
2119.095595,14211.954086,0.000000,-75537.016103
2119.098133,12731.542202,3552.988522,-71400.100414
2119.100671,9326.594869,-1332.370696,-73698.386908
2119.103208,9918.759623,2664.741391,-72779.072310
2119.105746,-3256.906145,-296.082377,-74311.263306
2119.108284,-4293.194464,3108.864956,-73545.167808
2119.110822,-9474.636058,-444.123565,-73851.606007
2119.113366,-4441.235652,-296.082377,-73085.510509
2119.115915,-592.164754,2368.659014,-72319.415011
2119.118464,-6217.729913,1480.411884,-74617.701505
2119.121013,-10362.883188,2812.782580,-73851.606007
2119.123561,-14359.995275,-1036.288319,-73851.606007
2119.126110,-9622.677246,2664.741391,-71553.319513
2119.128659,1332.370696,-888.247130,-73851.606007
2119.131208,3701.029710,1628.453072,-73851.606007
2119.133757,-1480.411884,2812.782580,-73085.510509
2119.136305,-6957.935855,-444.123565,-74464.482406
2119.138854,-3849.070898,592.164754,-73545.167808
2119.141403,-15988.448347,1332.370696,-72319.415011
2119.143952,-12583.501014,888.247130,-74004.825107
2119.146501,-10807.006753,740.205942,-74770.920605
2119.149049,-10955.047942,2220.617826,-73851.606007
2119.151598,5625.565159,2368.659014,-72319.415011
2119.154147,10658.965565,592.164754,-73545.167808
2119.156696,15396.283594,1480.411884,-73698.386908
2119.159245,2368.659014,148.041188,-73851.606007
2119.161793,-1924.535449,888.247130,-74311.263306
2119.164342,3849.070898,1036.288319,-73545.167808
2119.166891,11103.089130,1628.453072,-73238.729609
2119.169440,18801.230927,1036.288319,-72932.291410
2119.171988,14211.954086,1036.288319,-73545.167808
2119.174537,-1184.329507,592.164754,-73851.606007
2119.177086,1036.288319,1628.453072,-74311.263306
2119.179635,-740.205942,2220.617826,-74464.482406
2119.182184,7402.059420,888.247130,-74311.263306
2119.184732,10362.883188,1924.535449,-73698.386908
2119.187281,11547.212695,888.247130,-72319.415011
2119.189830,15248.242405,2220.617826,-73545.167808
2119.192379,13767.830521,1332.370696,-74617.701505
2119.194928,7994.224174,1036.288319,-73851.606007
2119.197476,-740.205942,148.041188,-74004.825107
2119.200025,-10807.006753,296.082377,-73085.510509
2119.202574,-12879.583391,1480.411884,-73851.606007
2119.205123,-2516.700203,2664.741391,-72166.195912
2119.207671,0.000000,1776.494261,-75077.358804
2119.210220,-5033.400406,-296.082377,-74311.263306
2119.212769,-11843.295072,2960.823768,-73085.510509
2119.215326,-10658.965565,148.041188,-73085.510509
2119.217883,444.123565,0.000000,-74158.044206
2119.220440,2368.659014,148.041188,-72932.291410
2119.222997,-4145.153275,2368.659014,-73545.167808
2119.225554,14359.995275,1628.453072,-75996.673402
2119.228112,-10658.965565,1924.535449,-72779.072310
2119.230669,-7994.224174,148.041188,-72472.634111
2119.233226,-5181.441594,-1036.288319,-72625.853210
2119.235783,-19837.519246,1480.411884,-73391.948708
2119.238340,-10214.842000,-296.082377,-76303.111601
2119.240897,-8882.471304,4737.318029,-71246.881314
2119.243454,2664.741391,740.205942,-73851.606007
2119.246011,10362.883188,2220.617826,-73851.606007
2119.248568,11991.336260,-444.123565,-73851.606007
2119.251125,5921.647536,1628.453072,-72779.072310
2119.253682,-1628.453072,0.000000,-74770.920605
2119.256240,2516.700203,2220.617826,-73238.729609
2119.258797,12583.501014,3256.906145,-71859.757712
2119.261354,13915.871710,-1776.494261,-75077.358804
2119.263911,8734.430116,2960.823768,-72472.634111
2119.266468,4293.194464,-296.082377,-74158.044206
2119.269025,-4293.194464,740.205942,-72779.072310
2119.271582,-4293.194464,1924.535449,-74770.920605
2119.274139,5033.400406,444.123565,-74158.044206
2119.276696,9770.718434,3256.906145,-71859.757712
2119.279253,15100.201217,1036.288319,-76609.549800
2119.281810,14063.912898,2664.741391,-72625.853210
2119.284367,8290.306550,-148.041188,-72932.291410
2119.286925,9918.759623,2368.659014,-73238.729609
2119.289482,-4589.276840,-1036.288319,-75996.673402
2119.292039,-6217.729913,1776.494261,-72472.634111
2119.294596,-9178.553681,1924.535449,-72625.853210
2119.297153,-2368.659014,1480.411884,-73698.386908
2119.299710,1628.453072,1628.453072,-74311.263306
2119.302267,-7846.182985,296.082377,-74311.263306
2119.304824,-11843.295072,2516.700203,-74158.044206
2119.307381,-12139.377449,148.041188,-73085.510509
2119.309938,-6513.812290,592.164754,-72625.853210
2119.312495,-2368.659014,1332.370696,-72472.634111
2119.315052,5921.647536,1924.535449,-75843.454302
2119.317617,-444.123565,1628.453072,-74158.044206
2119.320181,296.082377,1628.453072,-73391.948708
2119.322745,-3552.988522,296.082377,-73238.729609
2119.325309,-16876.695478,-592.164754,-73391.948708
2119.327874,-11251.130318,592.164754,-73085.510509
2119.330438,-10066.800811,2072.576638,-73238.729609
2119.333002,-5773.606348,2368.659014,-74158.044206
2119.335566,3701.029710,1332.370696,-73851.606007
2119.338130,9030.512492,-592.164754,-73698.386908
2119.340695,10510.924376,888.247130,-72472.634111
2119.343259,2368.659014,592.164754,-74158.044206
2119.345823,-2220.617826,740.205942,-73851.606007
2119.348387,5033.400406,2960.823768,-74004.825107
2119.350951,13323.706956,1184.329507,-74464.482406
2119.353516,9770.718434,740.205942,-73851.606007
2119.356080,6365.771101,1036.288319,-71553.319513
2119.358644,1776.494261,1184.329507,-73391.948708
2119.361208,-7550.100608,444.123565,-74004.825107
2119.363772,2812.782580,1332.370696,-74770.920605
2119.366337,9918.759623,1184.329507,-73085.510509
2119.368901,8438.347739,3256.906145,-73085.510509
2119.371465,18801.230927,-3256.906145,-73851.606007
2119.374029,10658.965565,2220.617826,-71706.538613
2119.376593,11103.089130,-888.247130,-74004.825107
2119.379158,8142.265362,3701.029710,-74158.044206
2119.381722,-6661.853478,-1184.329507,-73391.948708
2119.384286,-5477.523971,3404.947333,-72472.634111
2119.386850,-7846.182985,1480.411884,-73391.948708
2119.389414,-1036.288319,592.164754,-73391.948708
2119.391979,-1332.370696,1924.535449,-72319.415011
2119.394543,-5921.647536,888.247130,-74924.139704
2119.397107,-13323.706956,2220.617826,-74924.139704
2119.399671,-12583.501014,-1184.329507,-73391.948708
2119.402235,1924.535449,3256.906145,-71400.100414
2119.404800,-1924.535449,1628.453072,-73851.606007
2119.407364,3552.988522,1184.329507,-74770.920605
2119.409928,-296.082377,2812.782580,-73851.606007
2119.412492,-5033.400406,-148.041188,-74770.920605
2119.415056,-7105.977043,-444.123565,-73085.510509
2119.417621,-19837.519246,592.164754,-73238.729609
2119.420190,-7105.977043,2220.617826,-74158.044206
