#time,accel_x,accel_y,accel_z
1773.656923,1332.370696,2220.617826,-73698.386908
1773.659255,1332.370696,-296.082377,-73698.386908
1773.661587,740.205942,1184.329507,-72932.291410
1773.663920,148.041188,-148.041188,-73851.606007
1773.666252,444.123565,1036.288319,-73545.167808
1773.668584,888.247130,1924.535449,-72625.853210
1773.670916,2220.617826,1332.370696,-73085.510509
1773.673248,2072.576638,1184.329507,-73698.386908
1773.675580,1184.329507,1036.288319,-73851.606007
1773.677912,296.082377,1036.288319,-72779.072310
1773.680244,-296.082377,148.041188,-73391.948708
1773.682577,-444.123565,-740.205942,-74924.139704
1773.684909,-740.205942,1480.411884,-73698.386908
1773.687241,1332.370696,1924.535449,-72779.072310
1773.689573,1776.494261,148.041188,-74004.825107
1773.691905,444.123565,296.082377,-74158.044206
1773.694237,148.041188,1036.288319,-73698.386908
1773.696569,-592.164754,2960.823768,-73391.948708
1773.698902,-1184.329507,-6069.688724,-76456.330700
1773.701234,888.247130,4441.235652,-72319.415011
1773.703566,-148.041188,-8290.306550,-74004.825107
1773.705898,1776.494261,-148.041188,-69867.909418
1773.708230,2516.700203,-11843.295072,-74464.482406
1773.710562,-1776.494261,-5033.400406,-75383.797003
1773.712894,-444.123565,-4145.153275,-76456.330700
1773.715227,444.123565,888.247130,-74464.482406
1773.717559,-1480.411884,2516.700203,-72779.072310
1773.719891,296.082377,-1480.411884,-70174.347617
1773.722223,1776.494261,1480.411884,-73085.510509
1773.724555,3404.947333,-1480.411884,-76149.892501
1773.726887,2960.823768,9918.759623,-73085.510509
1773.729219,-1184.329507,592.164754,-75077.358804
1773.731552,-444.123565,3404.947333,-72166.195912
1773.733979,1332.370696,3552.988522,-70940.443115
1773.736404,3552.988522,6809.894666,-73545.167808
1773.738829,-592.164754,7402.059420,-76456.330700
1773.741254,1776.494261,3552.988522,-75230.577904
1773.743679,2072.576638,740.205942,-72319.415011
1773.746104,592.164754,1332.370696,-71246.881314
1773.748529,-444.123565,3552.988522,-73391.948708
1773.750954,-1480.411884,1628.453072,-76762.768900
1773.753379,1332.370696,11251.130318,-74617.701505
1773.755804,1628.453072,10214.842000,-72012.976812
1773.758228,-592.164754,-1480.411884,-73851.606007
1773.760653,1184.329507,-296.082377,-73851.606007
1773.763078,-444.123565,-4145.153275,-74464.482406
1773.765503,-1036.288319,3552.988522,-74004.825107
1773.767928,-592.164754,5477.523971,-72625.853210
1773.770353,-1332.370696,-2368.659014,-75996.673402
1773.772778,3404.947333,11695.253884,-71400.100414
1773.775203,148.041188,6069.688724,-74311.263306
1773.777628,-2072.576638,10362.883188,-73698.386908
1773.780053,-592.164754,8290.306550,-73851.606007
1773.782478,-444.123565,5329.482782,-72779.072310
1773.784903,-1184.329507,-2072.576638,-74158.044206
1773.787328,148.041188,-1924.535449,-72166.195912
1773.789753,2368.659014,-444.123565,-72625.853210
1773.792178,1184.329507,740.205942,-74311.263306
1773.794603,2220.617826,8586.388927,-73085.510509
1773.797028,1332.370696,12435.459826,-74158.044206
1773.799453,1184.329507,9474.636058,-73238.729609
1773.801878,0.000000,-3701.029710,-73085.510509
1773.804303,1480.411884,1924.535449,-72166.195912
1773.806728,444.123565,1776.494261,-75077.358804
1773.809153,444.123565,-9326.594869,-77222.426198
1773.811578,2812.782580,-12435.459826,-72625.853210
1773.814003,3108.864956,-5921.647536,-68335.718422
1773.816428,-2960.823768,444.123565,-74004.825107
1773.818853,-1184.329507,2812.782580,-78141.740796
1773.821278,-148.041188,10066.800811,-74924.139704
1773.823703,2368.659014,4145.153275,-71093.662214
1773.826128,2368.659014,-11547.212695,-72625.853210
1773.828552,1480.411884,-10066.800811,-71400.100414
1773.831039,1036.288319,-6661.853478,-73391.948708
1773.833526,-1776.494261,-6069.688724,-77375.645298
1773.836013,0.000000,-1628.453072,-76303.111601
1773.838500,-296.082377,1184.329507,-70634.004916
1773.840987,-148.041188,4737.318029,-69101.813920
1773.843474,-888.247130,1184.329507,-74311.263306
1773.845961,1776.494261,2072.576638,-75690.235202
1773.848448,0.000000,-8290.306550,-75537.016103
1773.850935,0.000000,9474.636058,-70480.785816
1773.853422,-2516.700203,-30200.402434,-78754.617194
1773.855909,2072.576638,11399.171507,-68488.937521
1773.858396,1036.288319,-7550.100608,-76149.892501
1773.860883,1332.370696,3256.906145,-74004.825107
1773.863370,2664.741391,1924.535449,-73391.948708
1773.865857,888.247130,-10807.006753,-75996.673402
1773.868344,1776.494261,-2812.782580,-72012.976812
1773.870831,-1036.288319,-16728.654289,-77528.864398
1773.873318,1036.288319,4589.276840,-71553.319513
1773.875805,-1628.453072,-2220.617826,-74617.701505
1773.878292,1924.535449,3701.029710,-74004.825107
1773.880779,1924.535449,2368.659014,-71246.881314
1773.883266,444.123565,-888.247130,-71553.319513
1773.885753,1036.288319,-9622.677246,-74770.920605
1773.888240,-296.082377,-7994.224174,-75690.235202
1773.890727,-592.164754,-3256.906145,-74924.139704
1773.893214,2812.782580,1776.494261,-72779.072310
1773.895701,2664.741391,-1184.329507,-73391.948708
1773.898188,1776.494261,-2220.617826,-71093.662214
1773.900675,1332.370696,3404.947333,-70787.224015
1773.903162,2220.617826,12287.418637,-75690.235202
1773.905649,592.164754,2664.741391,-80746.465489
1773.908136,-1776.494261,444.123565,-72932.291410
1773.910623,-1332.370696,-148.041188,-66343.870127
1773.913110,-592.164754,2368.659014,-71553.319513
1773.915597,1036.288319,7105.977043,-78907.836294
1773.918084,2220.617826,5625.565159,-75690.235202
1773.920571,148.041188,13175.665768,-71400.100414
1773.923058,-2072.576638,-2072.576638,-74004.825107
1773.925545,592.164754,-2368.659014,-71553.319513
1773.928032,296.082377,3849.070898,-71859.757712
1773.930557,-1184.329507,6809.894666,-76915.987999
1773.933083,888.247130,3997.112087,-76456.330700
1773.935608,4293.194464,4737.318029,-71246.881314
1773.938134,2220.617826,592.164754,-69408.252119
1773.940659,-1184.329507,1480.411884,-74004.825107
1773.943185,-592.164754,-2368.659014,-77375.645298
1773.945710,1036.288319,7846.182985,-72932.291410
1773.948236,740.205942,444.123565,-74924.139704
1773.950762,-444.123565,-3404.947333,-73238.729609
1773.953287,3404.947333,-3108.864956,-72779.072310
1773.955813,3256.906145,1480.411884,-74617.701505
1773.958338,-1036.288319,2368.659014,-74311.263306
1773.960864,1924.535449,8882.471304,-73391.948708
1773.963389,-1036.288319,12287.418637,-74770.920605
1773.965915,-444.123565,2812.782580,-76456.330700
1773.968440,2812.782580,7994.224174,-71246.881314
1773.970966,1184.329507,9326.594869,-70480.785816
1773.973491,444.123565,3552.988522,-75383.797003
1773.976017,0.000000,-444.123565,-77222.426198
1773.978543,740.205942,-1332.370696,-73851.606007
1773.981068,-2368.659014,148.041188,-71859.757712
1773.983594,-2072.576638,2664.741391,-74311.263306
1773.986119,-592.164754,7105.977043,-75690.235202
1773.988645,2812.782580,11103.089130,-72012.976812
1773.991170,1776.494261,444.123565,-73238.729609
1773.993696,0.000000,5477.523971,-74464.482406
1773.996221,-1332.370696,-4441.235652,-75230.577904
1773.998747,-1036.288319,-3701.029710,-73851.606007
1774.001273,592.164754,-15396.283594,-74004.825107
1774.003798,1776.494261,-3552.988522,-70174.347617
1774.006324,-296.082377,-4737.318029,-74158.044206
1774.008849,2220.617826,6069.688724,-75996.673402
1774.011375,0.000000,3404.947333,-76149.892501
1774.013900,444.123565,2960.823768,-71400.100414
1774.016426,148.041188,-4145.153275,-71400.100414
1774.018951,-444.123565,-9030.512492,-75077.358804
1774.021477,888.247130,-7254.018232,-74770.920605
1774.024002,296.082377,-6365.771101,-74924.139704
1774.026528,2220.617826,-1184.329507,-73391.948708
1774.029054,1332.370696,-3256.906145,-72625.853210
1774.031605,1036.288319,1184.329507,-71246.881314
1774.034156,296.082377,4145.153275,-74311.263306
1774.036707,-444.123565,-4293.194464,-76915.987999
1774.039258,1776.494261,14804.118840,-72319.415011
1774.041810,444.123565,-11547.212695,-74158.044206
1774.044361,1924.535449,-15692.365970,-73851.606007
1774.046912,3849.070898,12287.418637,-70480.785816
1774.049463,-1480.411884,-6069.688724,-77222.426198
1774.052015,-444.123565,3552.988522,-72625.853210
1774.054566,0.000000,-9030.512492,-72779.072310
1774.057117,-148.041188,-6661.853478,-74004.825107
1774.059668,2220.617826,-1776.494261,-72932.291410
1774.062220,2812.782580,-2516.700203,-74004.825107
1774.064771,1184.329507,2220.617826,-72166.195912
1774.067322,-148.041188,-6365.771101,-76149.892501
1774.069873,-148.041188,-296.082377,-71246.881314
1774.072424,-1036.288319,-740.205942,-72166.195912
1774.074976,-1332.370696,-6069.688724,-74311.263306
1774.077527,1776.494261,-5329.482782,-76303.111601
1774.080078,1628.453072,2960.823768,-72472.634111
1774.082629,1184.329507,-1332.370696,-74770.920605
1774.085181,-888.247130,-4589.276840,-72779.072310
1774.087732,-1036.288319,-4145.153275,-71400.100414
1774.090283,-1628.453072,5625.565159,-72166.195912
1774.092834,444.123565,8882.471304,-79214.274493
1774.095386,2368.659014,6069.688724,-77222.426198
1774.097937,592.164754,3108.864956,-68948.594820
1774.100488,592.164754,2368.659014,-68029.280222
1774.103039,4885.359217,1036.288319,-75077.358804
1774.105590,888.247130,8290.306550,-79061.055394
1774.108142,-740.205942,8142.265362,-75383.797003
1774.110693,1036.288319,1184.329507,-72166.195912
1774.113244,1480.411884,-2516.700203,-71400.100414
1774.115795,1036.288319,3256.906145,-70787.224015
1774.118347,1184.329507,6661.853478,-74464.482406
1774.120898,1036.288319,5921.647536,-78448.178995
1774.123449,-296.082377,3404.947333,-74617.701505
1774.126000,740.205942,6217.729913,-69714.690318
1774.128552,740.205942,2072.576638,-70480.785816
1774.131103,1924.535449,10658.965565,-73238.729609
1774.133672,740.205942,-8290.306550,-77835.302597
1774.136240,5181.441594,12287.418637,-72932.291410
1774.138809,444.123565,-8290.306550,-75230.577904
1774.141378,-2220.617826,4293.194464,-71246.881314
1774.143946,2368.659014,2072.576638,-72932.291410
1774.146515,-5773.606348,-3849.070898,-75383.797003
1774.149084,2368.659014,15840.407159,-72472.634111
1774.151652,148.041188,9770.718434,-75843.454302
1774.154221,1332.370696,13471.748144,-73085.510509
1774.156790,1480.411884,-592.164754,-71246.881314
1774.159359,592.164754,7846.182985,-69408.252119
1774.161927,-2812.782580,-1036.288319,-75383.797003
1774.164496,444.123565,296.082377,-77222.426198
1774.167065,740.205942,740.205942,-75537.016103
1774.169633,2220.617826,5773.606348,-70327.566716
1774.172202,740.205942,4737.318029,-72779.072310
1774.174771,1924.535449,5181.441594,-72932.291410
1774.177339,-592.164754,5625.565159,-72932.291410
1774.179908,-2220.617826,1628.453072,-75843.454302
1774.182477,-888.247130,5033.400406,-75996.673402
1774.185046,-444.123565,-7994.224174,-74617.701505
1774.187614,3849.070898,-8290.306550,-70021.128517
1774.190183,1480.411884,-11843.295072,-69714.690318
1774.192752,1776.494261,-5773.606348,-73238.729609
1774.195320,1184.329507,2072.576638,-77375.645298
1774.197889,-444.123565,7254.018232,-76915.987999
1774.200458,888.247130,2220.617826,-71706.538613
1774.203027,1480.411884,-3108.864956,-70480.785816
1774.205595,1776.494261,-5477.523971,-71246.881314
1774.208164,-148.041188,-7846.182985,-74924.139704
1774.210733,2072.576638,-2664.741391,-75843.454302
1774.213301,888.247130,-6365.771101,-74464.482406
1774.215870,-740.205942,-4441.235652,-72319.415011
1774.218439,-296.082377,-2072.576638,-70787.224015
1774.221007,-1332.370696,3701.029710,-72779.072310
1774.223576,2516.700203,8882.471304,-74311.263306
1774.226145,1776.494261,5921.647536,-74924.139704
1774.228714,-740.205942,-10510.924376,-74158.044206
1774.231282,2368.659014,-2516.700203,-70940.443115
1774.233851,-1480.411884,3256.906145,-71553.319513
1774.236429,-1480.411884,-2516.700203,-75230.577904
1774.239007,1628.453072,444.123565,-74770.920605
1774.241585,-740.205942,-2960.823768,-71400.100414
1774.244163,1184.329507,-5329.482782,-72472.634111
1774.246741,1036.288319,-14508.036463,-75690.235202
1774.249319,2072.576638,-1332.370696,-72472.634111
1774.251897,-1184.329507,1332.370696,-73391.948708
1774.254475,-2072.576638,-5477.523971,-77528.864398
1774.257053,148.041188,-1924.535449,-72012.976812
1774.259631,592.164754,-2960.823768,-71553.319513
1774.262209,2072.576638,740.205942,-72625.853210
1774.264787,1184.329507,-1184.329507,-76762.768900
1774.267365,3701.029710,1480.411884,-73698.386908
1774.269942,-1332.370696,-296.082377,-71706.538613
1774.272520,-1036.288319,-7402.059420,-72472.634111
1774.275098,-444.123565,-148.041188,-73391.948708
1774.277676,2812.782580,8882.471304,-75077.358804
1774.280254,2516.700203,11695.253884,-76149.892501
1774.282832,148.041188,3256.906145,-71859.757712
1774.285410,740.205942,4589.276840,-68182.499322
1774.287988,2368.659014,1776.494261,-73391.948708
1774.290566,1184.329507,6809.894666,-79061.055394
1774.293144,296.082377,3404.947333,-76762.768900
1774.295722,-444.123565,7698.141797,-70327.566716
1774.298300,2072.576638,-4885.359217,-72932.291410
1774.300878,1628.453072,1924.535449,-71859.757712
1774.303456,1924.535449,6513.812290,-72625.853210
1774.306034,-296.082377,11695.253884,-76303.111601
1774.308612,-296.082377,4885.359217,-78448.178995
1774.311190,444.123565,2664.741391,-72319.415011
1774.313768,444.123565,2072.576638,-70174.347617
1774.316346,-592.164754,6513.812290,-71859.757712
1774.318924,-592.164754,0.000000,-77069.207099
1774.321502,592.164754,0.000000,-74770.920605
1774.324080,296.082377,7550.100608,-72472.634111
1774.326658,-3256.906145,-3701.029710,-73698.386908
1774.329236,-444.123565,4441.235652,-70634.004916
1774.331814,888.247130,8142.265362,-70787.224015
1774.334392,-2072.576638,8586.388927,-75690.235202
1774.336970,2220.617826,13323.706956,-74924.139704
1774.339553,2220.617826,8882.471304,-74158.044206
1774.342137,2960.823768,6217.729913,-70174.347617
1774.344721,-592.164754,-6661.853478,-74464.482406
1774.347305,1628.453072,2368.659014,-73085.510509
1774.349889,444.123565,2960.823768,-75537.016103
1774.352472,-1036.288319,6365.771101,-75690.235202
1774.355056,1332.370696,6809.894666,-73085.510509
1774.357640,3108.864956,9178.553681,-68948.594820
1774.360224,1628.453072,-592.164754,-71706.538613
1774.362808,2368.659014,2960.823768,-74311.263306
1774.365391,-740.205942,4293.194464,-76609.549800
1774.367975,-740.205942,-5033.400406,-75383.797003
1774.370559,3552.988522,-11251.130318,-71859.757712
1774.373143,2220.617826,-13175.665768,-68642.156621
1774.375727,740.205942,-4293.194464,-71246.881314
1774.378310,1184.329507,3997.112087,-78601.398095
1774.380894,740.205942,7550.100608,-78907.836294
1774.383478,148.041188,2516.700203,-72472.634111
1774.386062,-1628.453072,-1480.411884,-69408.252119
1774.388646,-1036.288319,-10955.047942,-71553.319513
1774.391230,-148.041188,-10214.842000,-75230.577904
1774.393813,740.205942,-3256.906145,-76915.987999
1774.396397,2368.659014,-1776.494261,-74924.139704
1774.398981,-1036.288319,-5477.523971,-73851.606007
1774.401565,592.164754,-888.247130,-70021.128517
1774.404149,-148.041188,3108.864956,-71553.319513
1774.406732,-2368.659014,-3404.947333,-77375.645298
1774.409316,3108.864956,14656.077652,-73085.510509
1774.411900,888.247130,-4441.235652,-76456.330700
1774.414484,888.247130,-10362.883188,-72625.853210
1774.417068,0.000000,-5921.647536,-72779.072310
1774.419651,1776.494261,740.205942,-73698.386908
1774.422235,-1036.288319,-3404.947333,-73851.606007
1774.424819,296.082377,0.000000,-73391.948708
1774.427403,296.082377,-8586.388927,-74924.139704
1774.429987,148.041188,-11843.295072,-74311.263306
1774.432570,3701.029710,-3849.070898,-72472.634111
1774.435154,1776.494261,-888.247130,-71553.319513
1774.437738,148.041188,-5181.441594,-74924.139704
1774.440322,-740.205942,-3701.029710,-75383.797003
1774.442909,2368.659014,4589.276840,-73391.948708
1774.445496,888.247130,3256.906145,-73238.729609
1774.448084,2812.782580,-5181.441594,-74464.482406
1774.450671,1184.329507,-2516.700203,-70327.566716
1774.453258,0.000000,-8734.430116,-72625.853210
1774.455845,1332.370696,3256.906145,-74311.263306
1774.458433,148.041188,5033.400406,-77682.083497
1774.461020,-740.205942,6217.729913,-75843.454302
1774.463607,-1332.370696,5033.400406,-70174.347617
1774.466194,740.205942,8734.430116,-69255.033019
1774.468781,2664.741391,4737.318029,-77528.864398
1774.471369,3108.864956,9326.594869,-77988.521696
1774.473956,-148.041188,3701.029710,-74158.044206
1774.476543,-740.205942,-296.082377,-70634.004916
1774.479130,-1184.329507,-5477.523971,-72625.853210
1774.481718,148.041188,592.164754,-73851.606007
1774.484305,1332.370696,11547.212695,-73698.386908
1774.486892,0.000000,10955.047942,-75843.454302
1774.489479,296.082377,4145.153275,-74770.920605
1774.492067,1184.329507,3404.947333,-70787.224015
1774.494654,-888.247130,1036.288319,-70327.566716
1774.497241,-1480.411884,-2664.741391,-75077.358804
1774.499828,592.164754,3849.070898,-77069.207099
1774.502416,2072.576638,7698.141797,-74158.044206
1774.505003,592.164754,0.000000,-71859.757712
1774.507590,2960.823768,-740.205942,-71706.538613
1774.510177,1480.411884,2960.823768,-71553.319513
1774.512764,888.247130,12731.542202,-74464.482406
1774.515352,1332.370696,18209.066173,-75996.673402
1774.517939,-1924.535449,5181.441594,-75230.577904
1774.520526,740.205942,5329.482782,-69867.909418
1774.523113,2812.782580,-6957.935855,-71553.319513
1774.525625,2368.659014,1480.411884,-72779.072310
1774.528137,1628.453072,4737.318029,-75690.235202
1774.530648,740.205942,8882.471304,-76303.111601
1774.533160,-2812.782580,5329.482782,-74924.139704
1774.535672,888.247130,2812.782580,-71706.538613
1774.538183,1628.453072,-1184.329507,-70480.785816
1774.540695,1924.535449,9622.677246,-72779.072310
1774.543207,1776.494261,3552.988522,-79520.712692
1774.545718,296.082377,-5477.523971,-75690.235202
1774.548230,1332.370696,-13471.748144,-68795.375720
1774.550742,-148.041188,-11843.295072,-67416.403824
1774.553253,-2368.659014,-10066.800811,-76149.892501
1774.555765,148.041188,4737.318029,-78448.178995
1774.558277,592.164754,10658.965565,-76303.111601
1774.560788,2516.700203,5477.523971,-72625.853210
1774.563300,-296.082377,-10066.800811,-70327.566716
1774.565812,-148.041188,-7846.182985,-69255.033019
1774.568323,-1776.494261,-6513.812290,-75383.797003
1774.570835,-1628.453072,-5329.482782,-78907.836294
1774.573347,740.205942,-2960.823768,-75690.235202
1774.575858,296.082377,0.000000,-69255.033019
1774.578370,888.247130,-1628.453072,-68948.594820
1774.580882,1184.329507,-7402.059420,-74004.825107
1774.583393,1924.535449,11991.336260,-73545.167808
1774.585905,2812.782580,6957.935855,-76456.330700
1774.588417,-592.164754,-3552.988522,-75996.673402
1774.590928,1480.411884,-3552.988522,-69561.471218
1774.593440,2960.823768,-592.164754,-69408.252119
1774.595951,-740.205942,-8586.388927,-75537.016103
1774.598463,1332.370696,1776.494261,-73545.167808
1774.600975,-1776.494261,-7550.100608,-75690.235202
1774.603486,-888.247130,-6217.729913,-75996.673402
1774.605998,-888.247130,-13323.706956,-74311.263306
1774.608510,2072.576638,-4441.235652,-69101.813920
1774.611021,148.041188,148.041188,-72625.853210
1774.613533,1924.535449,1332.370696,-78294.959896
1774.616045,1332.370696,9030.512492,-76149.892501
1774.618556,-296.082377,3701.029710,-72166.195912
1774.621068,-1628.453072,-6661.853478,-70940.443115
1774.623580,-1776.494261,-12139.377449,-71246.881314
1774.626113,888.247130,-5921.647536,-73391.948708
1774.628646,3552.988522,12287.418637,-75537.016103
1774.631179,3552.988522,7550.100608,-79367.493593
1774.633713,-1628.453072,1332.370696,-70174.347617
1774.636246,-2368.659014,7254.018232,-64658.460031
1774.638779,-296.082377,6365.771101,-73698.386908
1774.641312,-592.164754,10807.006753,-80440.027290
1774.643845,2516.700203,8290.306550,-76456.330700
1774.646379,1480.411884,5181.441594,-70634.004916
1774.648912,592.164754,-9474.636058,-71246.881314
1774.651445,1480.411884,-3849.070898,-70174.347617
1774.653978,-148.041188,6069.688724,-72012.976812
1774.656512,148.041188,9178.553681,-79673.931792
1774.659045,0.000000,10066.800811,-76915.987999
1774.661578,2516.700203,5181.441594,-70174.347617
1774.664111,3108.864956,5033.400406,-66650.308326
1774.666644,444.123565,-7550.100608,-74464.482406
1774.669178,1036.288319,7402.059420,-75996.673402
1774.671711,296.082377,11843.295072,-76456.330700
1774.674244,-2664.741391,-2960.823768,-76303.111601
1774.676777,740.205942,740.205942,-69561.471218
1774.679310,-1480.411884,-740.205942,-76915.987999
1774.681844,2368.659014,16580.613101,-74617.701505
1774.684377,1480.411884,17764.942608,-78601.398095
1774.686910,592.164754,7550.100608,-75537.016103
1774.689443,1332.370696,-1480.411884,-70480.785816
1774.691977,-592.164754,-4589.276840,-70634.004916
1774.694510,-1184.329507,592.164754,-72932.291410
1774.697043,-444.123565,5181.441594,-76609.549800
1774.699576,1036.288319,11843.295072,-76609.549800
1774.702109,1924.535449,7994.224174,-74617.701505
1774.704643,-296.082377,-1184.329507,-68182.499322
1774.707176,-444.123565,2664.741391,-68642.156621
1774.709709,-2072.576638,2368.659014,-77222.426198
1774.712242,-2664.741391,-592.164754,-81206.122788
1774.714776,2664.741391,-4145.153275,-73851.606007
1774.717309,888.247130,-10362.883188,-67263.184724
1774.719842,1480.411884,-12435.459826,-70480.785816
1774.722375,2072.576638,-8290.306550,-75537.016103
1774.724908,-148.041188,7402.059420,-75843.454302
1774.727456,-1184.329507,7846.182985,-75690.235202
1774.730004,0.000000,-1332.370696,-73851.606007
1774.732551,1480.411884,-9622.677246,-69714.690318
1774.735099,1332.370696,-8142.265362,-68795.375720
1774.737646,4145.153275,-5181.441594,-75230.577904
1774.740194,1036.288319,-8438.347739,-79520.712692
1774.742741,888.247130,888.247130,-74004.825107
1774.745289,444.123565,5477.523971,-69408.252119
1774.747836,-740.205942,-7254.018232,-73238.729609
1774.750384,0.000000,2664.741391,-71246.881314
1774.752931,1480.411884,7846.182985,-73851.606007
1774.755479,1184.329507,-3701.029710,-78601.398095
1774.758026,1332.370696,1184.329507,-74158.044206
1774.760574,1628.453072,-2368.659014,-70480.785816
1774.763121,-888.247130,-10066.800811,-71706.538613
1774.765669,296.082377,-5625.565159,-72472.634111
1774.768216,-444.123565,-2812.782580,-75843.454302
1774.770764,148.041188,-2516.700203,-76915.987999
1774.773311,1184.329507,-8586.388927,-76762.768900
1774.775859,-148.041188,-9178.553681,-68335.718422
1774.778406,-592.164754,-4885.359217,-69255.033019
1774.780954,1184.329507,5181.441594,-75077.358804
1774.783501,-740.205942,7698.141797,-80593.246390
1774.786049,296.082377,5477.523971,-74924.139704
1774.788596,1184.329507,-2516.700203,-70634.004916
1774.791144,148.041188,-15248.242405,-69101.813920
1774.793691,2220.617826,-5773.606348,-70940.443115
1774.796239,2664.741391,5921.647536,-77069.207099
1774.798786,2812.782580,13175.665768,-79061.055394
1774.801334,-1628.453072,3108.864956,-73238.729609
1774.803881,-592.164754,7550.100608,-67109.965625
1774.806429,2960.823768,3849.070898,-71553.319513
1774.808976,888.247130,12139.377449,-76762.768900
1774.811524,888.247130,5773.606348,-78448.178995
1774.814071,1480.411884,3849.070898,-72779.072310
1774.816619,296.082377,-1036.288319,-71400.100414
1774.819166,2812.782580,-6069.688724,-70940.443115
1774.821714,-592.164754,3552.988522,-72625.853210
1774.824262,740.205942,9178.553681,-76149.892501
1774.826809,1184.329507,14656.077652,-76609.549800
1774.829367,1628.453072,9326.594869,-72166.195912
1774.831926,1924.535449,-11103.089130,-70480.785816
1774.834484,1332.370696,9474.636058,-68488.937521
1774.837043,-888.247130,-740.205942,-78448.178995
1774.839601,-1184.329507,148.041188,-79673.931792
1774.842160,1332.370696,9918.759623,-71246.881314
1774.844718,-1924.535449,-4737.318029,-72472.634111
1774.847277,-444.123565,14211.954086,-69867.909418
1774.849835,2516.700203,3404.947333,-76303.111601
1774.852394,1332.370696,20429.683999,-74158.044206
1774.854952,-1480.411884,-148.041188,-77069.207099
1774.857511,2220.617826,-1184.329507,-72625.853210
1774.860069,-1184.329507,444.123565,-70174.347617
1774.862627,-1332.370696,4441.235652,-72012.976812
1774.865186,-1480.411884,4293.194464,-76762.768900
1774.867744,3552.988522,6809.894666,-75230.577904
1774.870303,1480.411884,5033.400406,-71859.757712
1774.872861,-2220.617826,148.041188,-71859.757712
1774.875420,-148.041188,3404.947333,-74004.825107
1774.877978,-1776.494261,-3849.070898,-75843.454302
1774.880537,1184.329507,-5181.441594,-73238.729609
1774.883095,1184.329507,-8290.306550,-71400.100414
1774.885654,740.205942,-7550.100608,-73698.386908
1774.888212,2072.576638,-3701.029710,-74770.920605
1774.890771,592.164754,2960.823768,-74617.701505
1774.893329,1628.453072,1480.411884,-73698.386908
1774.895887,-1184.329507,1776.494261,-72012.976812
1774.898446,444.123565,-6809.894666,-73545.167808
1774.901004,2368.659014,-7402.059420,-73851.606007
1774.903563,1924.535449,-5181.441594,-73698.386908
1774.906121,2516.700203,-5625.565159,-73698.386908
1774.908680,1036.288319,1332.370696,-72779.072310
1774.911238,148.041188,1480.411884,-74158.044206
1774.913797,-888.247130,-7105.977043,-74158.044206
1774.916355,296.082377,2812.782580,-71246.881314
1774.918914,2812.782580,10658.965565,-70634.004916
1774.921472,-1776.494261,-444.123565,-79061.055394
1774.924030,2664.741391,-3256.906145,-76456.330700
1774.926589,1184.329507,-148.041188,-68488.937521
1774.929147,-1776.494261,-13619.789333,-70174.347617
1774.931714,1332.370696,-3849.070898,-72319.415011
1774.934281,-2960.823768,-8586.388927,-79673.931792
1774.936848,-1776.494261,-3256.906145,-74311.263306
1774.939415,1184.329507,-6957.935855,-74158.044206
1774.941982,444.123565,-3404.947333,-70634.004916
1774.944549,1184.329507,6217.729913,-70480.785816
1774.947116,592.164754,5921.647536,-75537.016103
1774.949683,444.123565,2812.782580,-78294.959896
1774.952250,-2072.576638,-3256.906145,-72625.853210
1774.954816,-1924.535449,-10066.800811,-70327.566716
1774.957383,2220.617826,-5773.606348,-71706.538613
1774.959950,2072.576638,3552.988522,-76609.549800
1774.962517,1480.411884,10214.842000,-76303.111601
1774.965084,1628.453072,10510.924376,-72012.976812
1774.967651,-2220.617826,6661.853478,-70480.785816
1774.970218,888.247130,4737.318029,-75077.358804
1774.972785,592.164754,9622.677246,-74617.701505
1774.975352,592.164754,5329.482782,-74924.139704
1774.977919,1924.535449,0.000000,-74158.044206
1774.980486,2072.576638,444.123565,-71093.662214
1774.983052,1628.453072,148.041188,-70480.785816
1774.985619,-444.123565,1332.370696,-74004.825107
1774.988186,0.000000,11843.295072,-75996.673402
1774.990753,-296.082377,13323.706956,-75383.797003
1774.993320,592.164754,5477.523971,-72166.195912
1774.995887,2368.659014,-7402.059420,-72012.976812
1774.998454,888.247130,10214.842000,-72319.415011
1775.001021,-740.205942,3108.864956,-78141.740796
1775.003588,-1036.288319,2960.823768,-75077.358804
1775.006155,-148.041188,10214.842000,-70634.004916
1775.008721,296.082377,1036.288319,-72625.853210
1775.011288,1036.288319,11251.130318,-72012.976812
1775.013855,1628.453072,6661.853478,-75383.797003
1775.016422,1036.288319,14508.036463,-73238.729609
1775.018989,-148.041188,-4145.153275,-75996.673402
1775.021556,296.082377,888.247130,-73545.167808
1775.024123,0.000000,4293.194464,-71400.100414
1775.026690,0.000000,7698.141797,-73391.948708
1775.029257,2664.741391,0.000000,-74004.825107
1775.031824,3404.947333,2812.782580,-74464.482406
1775.034395,296.082377,5773.606348,-72625.853210
1775.036967,444.123565,4145.153275,-74464.482406
1775.039539,-2072.576638,-5773.606348,-75230.577904
1775.042111,0.000000,-10807.006753,-71246.881314
1775.044683,2368.659014,-5033.400406,-71093.662214
1775.047255,296.082377,-7994.224174,-76456.330700
1775.049826,2516.700203,3404.947333,-74924.139704
1775.052398,888.247130,1184.329507,-73545.167808
1775.054970,592.164754,1184.329507,-72166.195912
1775.057542,-592.164754,-3997.112087,-72472.634111
1775.060114,-740.205942,-3404.947333,-74158.044206
1775.062685,-1628.453072,-5921.647536,-74311.263306
1775.065257,1184.329507,-5625.565159,-74004.825107
1775.067829,2812.782580,-6661.853478,-73851.606007
1775.070401,592.164754,4885.359217,-71093.662214
1775.072973,-888.247130,-1480.411884,-73698.386908
1775.075544,444.123565,888.247130,-73085.510509
1775.078116,148.041188,2220.617826,-72625.853210
1775.080688,-1480.411884,4737.318029,-73238.729609
1775.083260,148.041188,-2220.617826,-77682.083497
1775.085832,2220.617826,-5181.441594,-74770.920605
1775.088404,740.205942,-5773.606348,-70327.566716
1775.090975,1036.288319,-12139.377449,-71553.319513
1775.093547,-296.082377,-4885.359217,-75077.358804
1775.096119,-1480.411884,-6217.729913,-77069.207099
1775.098691,-296.082377,-5477.523971,-74617.701505
1775.101263,1184.329507,-4737.318029,-70634.004916
1775.103834,2812.782580,3552.988522,-71706.538613
1775.106406,2072.576638,5625.565159,-74158.044206
1775.108978,2960.823768,4293.194464,-75230.577904
1775.111550,-148.041188,-444.123565,-74311.263306
1775.114122,-1184.329507,-9918.759623,-72472.634111
1775.116694,2220.617826,-1776.494261,-72625.853210
1775.119265,1776.494261,4293.194464,-75996.673402
1775.121837,444.123565,4589.276840,-76149.892501
1775.124409,1480.411884,11103.089130,-70787.224015
1775.126981,1184.329507,11843.295072,-70174.347617
1775.129553,888.247130,5477.523971,-75230.577904
1775.132124,-296.082377,6513.812290,-76762.768900
1775.134696,-888.247130,6365.771101,-73698.386908
1775.137272,740.205942,-1776.494261,-72932.291410
1775.139848,1480.411884,1332.370696,-72625.853210
1775.142424,2812.782580,296.082377,-72625.853210
1775.145000,1184.329507,8290.306550,-72472.634111
1775.147576,592.164754,7698.141797,-75077.358804
1775.150152,444.123565,8586.388927,-75383.797003
1775.152728,-592.164754,-1776.494261,-74617.701505
1775.155304,1332.370696,-3849.070898,-70327.566716
1775.157879,148.041188,2220.617826,-71093.662214
1775.160455,592.164754,2368.659014,-77069.207099
1775.163031,1924.535449,4885.359217,-77835.302597
1775.165607,740.205942,4441.235652,-70021.128517
1775.168183,-1332.370696,11843.295072,-67876.061123
1775.170759,-740.205942,3404.947333,-78141.740796
1775.173335,296.082377,8290.306550,-76762.768900
1775.175911,1036.288319,8734.430116,-72779.072310
1775.178487,1480.411884,8586.388927,-72625.853210
1775.181063,444.123565,-2516.700203,-75077.358804
1775.183639,1480.411884,1480.411884,-71400.100414
1775.186215,-296.082377,4737.318029,-72472.634111
1775.188791,-592.164754,-1480.411884,-77069.207099
1775.191366,2960.823768,4737.318029,-74770.920605
1775.193942,888.247130,8586.388927,-72012.976812
1775.196518,-1036.288319,-3108.864956,-74464.482406
1775.199094,2664.741391,-7698.141797,-73545.167808
1775.201670,1924.535449,-6365.771101,-70021.128517
1775.204246,1036.288319,-3997.112087,-73085.510509
1775.206822,0.000000,-4885.359217,-79827.150892
1775.209398,-1184.329507,-2072.576638,-77222.426198
1775.211974,2960.823768,3404.947333,-68488.937521
1775.214550,2220.617826,-1036.288319,-71553.319513
1775.217126,1776.494261,-6217.729913,-74311.263306
1775.219702,1184.329507,-592.164754,-74004.825107
1775.222277,-296.082377,-2960.823768,-75077.358804
1775.224853,-740.205942,-10066.800811,-76149.892501
1775.227429,444.123565,-8586.388927,-72625.853210
1775.230005,-148.041188,13619.789333,-66650.308326
1775.232581,-1776.494261,-5477.523971,-77835.302597
1775.235157,-148.041188,-3256.906145,-74924.139704
1775.237733,1184.329507,2516.700203,-72472.634111
1775.240310,3108.864956,-148.041188,-75230.577904
1775.242888,-2072.576638,-10658.965565,-77069.207099
1775.245465,592.164754,296.082377,-67416.403824
1775.248043,148.041188,-12287.418637,-72472.634111
1775.250620,-1480.411884,-7402.059420,-76609.549800
1775.253198,888.247130,-7698.141797,-77222.426198
1775.255775,2516.700203,2072.576638,-70480.785816
1775.258353,592.164754,-6069.688724,-71246.881314
1775.260930,-1332.370696,-296.082377,-74004.825107
1775.263507,1332.370696,7550.100608,-74464.482406
1775.266085,-1332.370696,3997.112087,-73238.729609
1775.268662,148.041188,-3701.029710,-73851.606007
1775.271240,148.041188,-9622.677246,-73391.948708
1775.273817,4145.153275,888.247130,-71093.662214
1775.276395,3552.988522,4145.153275,-76149.892501
1775.278972,296.082377,6513.812290,-75383.797003
1775.281549,-740.205942,10510.924376,-69561.471218
1775.284127,0.000000,9474.636058,-71553.319513
1775.286704,444.123565,4145.153275,-77835.302597
1775.289282,2664.741391,11547.212695,-73851.606007
1775.291859,0.000000,5773.606348,-71246.881314
1775.294437,1628.453072,-2664.741391,-73085.510509
1775.297014,740.205942,-3404.947333,-74311.263306
1775.299592,740.205942,3404.947333,-72166.195912
1775.302169,-1480.411884,7994.224174,-73391.948708
1775.304746,-888.247130,11103.089130,-76149.892501
1775.307324,1480.411884,12139.377449,-72319.415011
1775.309901,-296.082377,-1776.494261,-72166.195912
1775.312479,2960.823768,4589.276840,-71400.100414
1775.315056,-444.123565,-4293.194464,-76609.549800
1775.317634,1332.370696,9030.512492,-74004.825107
1775.320211,-444.123565,2812.782580,-76149.892501
1775.322789,-444.123565,9474.636058,-72625.853210
1775.325366,-1776.494261,9030.512492,-71706.538613
1775.327943,2812.782580,5625.565159,-74464.482406
1775.330521,1776.494261,10066.800811,-75690.235202
1775.333098,-592.164754,4885.359217,-75230.577904
1775.335676,592.164754,5625.565159,-72932.291410
1775.338253,-2072.576638,-1924.535449,-72166.195912
1775.340831,-296.082377,-1628.453072,-72932.291410
1775.343409,-1332.370696,-1332.370696,-72625.853210
1775.345987,3404.947333,5625.565159,-73391.948708
1775.348565,0.000000,7402.059420,-75537.016103
1775.351143,1036.288319,1776.494261,-75843.454302
1775.353721,1332.370696,-3849.070898,-70327.566716
1775.356299,0.000000,-7994.224174,-68488.937521
1775.358878,-444.123565,-9178.553681,-75996.673402
1775.361456,148.041188,-1480.411884,-78294.959896
1775.364034,1332.370696,1184.329507,-75690.235202
1775.366612,2368.659014,3404.947333,-69867.909418
1775.369190,2516.700203,-6217.729913,-70940.443115
1775.371768,740.205942,-3256.906145,-71553.319513
1775.374346,-1332.370696,-3108.864956,-75077.358804
1775.376925,0.000000,1776.494261,-76456.330700
1775.379503,-740.205942,-8586.388927,-76149.892501
1775.382081,1924.535449,-6957.935855,-69561.471218
1775.384659,2664.741391,8882.471304,-68029.280222
1775.387237,888.247130,-3108.864956,-77222.426198
1775.389815,-592.164754,-2664.741391,-75230.577904
1775.392393,444.123565,8586.388927,-71246.881314
1775.394972,-2072.576638,-6365.771101,-74617.701505
1775.397550,-1628.453072,-2368.659014,-75077.358804
1775.400128,444.123565,-15544.324782,-72166.195912
1775.402706,0.000000,-3256.906145,-66956.746525
1775.405284,740.205942,-5773.606348,-75843.454302
1775.407862,1924.535449,-6957.935855,-77682.083497
1775.410440,-1776.494261,1036.288319,-71400.100414
1775.413018,-592.164754,0.000000,-72932.291410
1775.415597,0.000000,2220.617826,-74770.920605
1775.418175,1628.453072,1776.494261,-73238.729609
1775.420753,2072.576638,2664.741391,-70787.224015
1775.423331,-444.123565,-11991.336260,-76303.111601
1775.425909,3256.906145,592.164754,-73698.386908
1775.428487,1332.370696,3256.906145,-73851.606007
1775.431065,-444.123565,5773.606348,-73238.729609
1775.433644,1036.288319,9030.512492,-70174.347617
1775.436222,888.247130,10066.800811,-71246.881314
1775.438800,2960.823768,8142.265362,-76149.892501
1775.441378,2072.576638,10066.800811,-76609.549800
1775.443956,-2368.659014,296.082377,-73545.167808
1775.446535,-740.205942,-1776.494261,-69255.033019
1775.449113,-1184.329507,740.205942,-72779.072310
1775.451692,888.247130,-740.205942,-76303.111601
1775.454270,888.247130,11399.171507,-73698.386908
1775.456849,1776.494261,14508.036463,-73698.386908
1775.459427,-444.123565,148.041188,-74924.139704
1775.462006,-296.082377,-4441.235652,-71859.757712
1775.464584,1924.535449,148.041188,-70021.128517
1775.467163,-1480.411884,7254.018232,-74004.825107
1775.469741,-740.205942,2072.576638,-77375.645298
1775.472320,1628.453072,9918.759623,-73698.386908
1775.474898,2664.741391,4885.359217,-72166.195912
1775.477477,1184.329507,7846.182985,-71859.757712
1775.480055,-592.164754,9178.553681,-73545.167808
1775.482634,888.247130,11399.171507,-74617.701505
1775.485212,-2664.741391,6513.812290,-76456.330700
1775.487791,148.041188,2516.700203,-75383.797003
1775.490369,1480.411884,-444.123565,-71093.662214
1775.492948,3552.988522,-1332.370696,-70174.347617
1775.495526,2960.823768,-4293.194464,-74311.263306
1775.498105,-1184.329507,5625.565159,-74924.139704
1775.500683,296.082377,10214.842000,-76762.768900
1775.503262,-148.041188,-296.082377,-72472.634111
1775.505841,592.164754,-11251.130318,-69255.033019
1775.508419,3108.864956,-7550.100608,-69561.471218
1775.510998,148.041188,-4885.359217,-77528.864398
1775.513576,1480.411884,2960.823768,-77682.083497
1775.516155,740.205942,-1036.288319,-75077.358804
1775.518733,1036.288319,-2220.617826,-69101.813920
1775.521312,-1480.411884,-7105.977043,-70787.224015
1775.523890,-1628.453072,-2368.659014,-73391.948708
1775.526469,2516.700203,3108.864956,-76303.111601
1775.529047,1184.329507,-1332.370696,-76609.549800
1775.531626,1480.411884,-2812.782580,-74464.482406
1775.534204,444.123565,-6069.688724,-69867.909418
1775.536783,-296.082377,296.082377,-72012.976812
1775.539361,-740.205942,-740.205942,-76149.892501
1775.541940,-1184.329507,148.041188,-75537.016103
1775.544518,-296.082377,2960.823768,-73085.510509
1775.547097,444.123565,-10807.006753,-76149.892501
1775.549623,1036.288319,-12287.418637,-73238.729609
1775.552149,0.000000,-9474.636058,-69714.690318
1775.554675,-148.041188,-4145.153275,-73238.729609
1775.557200,-296.082377,-6513.812290,-78601.398095
1775.559726,-888.247130,740.205942,-74464.482406
1775.562252,-740.205942,4885.359217,-70174.347617
1775.564778,3256.906145,5329.482782,-71859.757712
1775.567304,0.000000,-1776.494261,-74617.701505
1775.569830,2368.659014,-3849.070898,-72472.634111
1775.572356,-2072.576638,-7254.018232,-74464.482406
1775.574882,148.041188,2664.741391,-76915.987999
1775.577408,1628.453072,1628.453072,-76609.549800
1775.579934,296.082377,4737.318029,-70634.004916
1775.582460,1628.453072,10510.924376,-68182.499322
1775.584985,0.000000,9622.677246,-74770.920605
1775.587511,3701.029710,9770.718434,-76915.987999
1775.590037,2368.659014,10807.006753,-74924.139704
1775.592563,-444.123565,2368.659014,-73698.386908
1775.595089,-148.041188,-4441.235652,-72779.072310
1775.597615,2220.617826,2220.617826,-70480.785816
1775.600141,1480.411884,5921.647536,-73545.167808
1775.602667,0.000000,11103.089130,-76456.330700
1775.605193,1776.494261,14804.118840,-75077.358804
1775.607719,-148.041188,-5477.523971,-72932.291410
1775.610245,592.164754,-1480.411884,-70021.128517
1775.612770,-888.247130,5625.565159,-72166.195912
1775.615296,444.123565,-5921.647536,-79061.055394
1775.617822,1036.288319,18801.230927,-72779.072310
1775.620348,888.247130,740.205942,-75383.797003
1775.622874,3108.864956,7105.977043,-69867.909418
1775.625400,-2220.617826,9622.677246,-70327.566716
1775.627926,1184.329507,8734.430116,-75996.673402
1775.630452,-3552.988522,9178.553681,-76762.768900
1775.632978,-740.205942,7550.100608,-76456.330700
1775.635504,296.082377,5625.565159,-70634.004916
1775.638030,2220.617826,-7402.059420,-71859.757712
1775.640555,1776.494261,-6217.729913,-71246.881314
1775.643081,2072.576638,1036.288319,-73545.167808
1775.645607,-296.082377,9326.594869,-78294.959896
1775.648133,-2072.576638,-2960.823768,-78294.959896
1775.650671,888.247130,-2812.782580,-68029.280222
1775.653210,1036.288319,-10214.842000,-66497.089226
1775.655748,0.000000,-7698.141797,-75537.016103
1775.658286,1184.329507,-148.041188,-79367.493593
1775.660824,888.247130,5181.441594,-75077.358804
1775.663362,1924.535449,-2072.576638,-72472.634111
1775.665900,1332.370696,-8290.306550,-71093.662214
1775.668438,888.247130,-4441.235652,-71400.100414
1775.670977,1480.411884,-1036.288319,-73851.606007
1775.673515,1628.453072,3108.864956,-78754.617194
1775.676053,3701.029710,-5921.647536,-77069.207099
1775.678591,888.247130,-8734.430116,-70021.128517
1775.681129,2516.700203,2220.617826,-67416.403824
1775.683667,592.164754,-8142.265362,-76149.892501
1775.686205,-740.205942,296.082377,-76149.892501
1775.688744,444.123565,7105.977043,-74311.263306
1775.691282,1480.411884,-14508.036463,-76609.549800
1775.693820,148.041188,-11843.295072,-70940.443115
1775.696358,1776.494261,-14063.912898,-70174.347617
1775.698896,444.123565,-3256.906145,-72166.195912
1775.701434,-1184.329507,-7550.100608,-79367.493593
1775.703972,888.247130,5033.400406,-75383.797003
1775.706511,-1776.494261,5921.647536,-72319.415011
1775.709049,592.164754,592.164754,-72932.291410
1775.711587,-444.123565,-3552.988522,-73391.948708
1775.714125,1480.411884,-3701.029710,-71859.757712
1775.716663,148.041188,-296.082377,-74770.920605
1775.719201,-296.082377,1036.288319,-80286.808190
1775.721739,592.164754,3108.864956,-74617.701505
1775.724278,-888.247130,3552.988522,-67722.842023
1775.726816,-1036.288319,10510.924376,-68335.718422
1775.729354,-296.082377,9770.718434,-75690.235202
1775.731892,3404.947333,11547.212695,-78601.398095
1775.734430,4145.153275,13027.624579,-74158.044206
1775.736968,0.000000,1036.288319,-72166.195912
1775.739506,1184.329507,-11695.253884,-72166.195912
1775.742045,444.123565,1480.411884,-69561.471218
1775.744583,0.000000,9178.553681,-76149.892501
1775.747121,-888.247130,6957.935855,-79061.055394
1775.749659,1924.535449,11991.336260,-74158.044206
1775.752205,2812.782580,-2368.659014,-69867.909418
1775.754752,296.082377,-6217.729913,-68795.375720
1775.757300,1184.329507,4737.318029,-72779.072310
1775.759847,-1184.329507,8438.347739,-79980.369991
1775.762394,-740.205942,5477.523971,-75537.016103
1775.764941,2664.741391,12583.501014,-67109.965625
1775.767488,0.000000,1036.288319,-71400.100414
1775.770035,3404.947333,7402.059420,-73391.948708
1775.772583,592.164754,11103.089130,-75690.235202
1775.775130,888.247130,14804.118840,-76303.111601
1775.777677,-1924.535449,5329.482782,-76456.330700
1775.780224,0.000000,-8142.265362,-72012.976812
1775.782771,-740.205942,-8586.388927,-68182.499322
1775.785319,2516.700203,-740.205942,-70327.566716
1775.787866,1332.370696,9326.594869,-80133.589091
1775.790413,-1332.370696,2516.700203,-79827.150892
1775.792960,1628.453072,-4293.194464,-70787.224015
1775.795507,592.164754,-9326.594869,-65730.993728
1775.798054,-1036.288319,-10362.883188,-72472.634111
1775.800602,-1036.288319,-3108.864956,-78294.959896
1775.803149,888.247130,5477.523971,-78294.959896
1775.805696,1924.535449,2368.659014,-73851.606007
1775.808243,2220.617826,-5181.441594,-69101.813920
1775.810790,2516.700203,-8290.306550,-69255.033019
1775.813337,-1924.535449,-5033.400406,-74464.482406
1775.815885,0.000000,1332.370696,-78754.617194
1775.818432,592.164754,740.205942,-78448.178995
1775.820979,1036.288319,-10955.047942,-73545.167808
1775.823526,5033.400406,1628.453072,-65884.212828
1775.826073,1036.288319,-1332.370696,-71859.757712
1775.828621,592.164754,-6661.853478,-76456.330700
1775.831168,2960.823768,9474.636058,-75843.454302
1775.833715,-1480.411884,-9622.677246,-76609.549800
1775.836262,1480.411884,-18209.066173,-71093.662214
1775.838809,1776.494261,-11991.336260,-68182.499322
1775.841356,296.082377,-7698.141797,-74311.263306
1775.843904,-1332.370696,888.247130,-77375.645298
1775.846451,-740.205942,8142.265362,-77375.645298
1775.848998,2368.659014,10214.842000,-72932.291410
1775.851545,-592.164754,-2664.741391,-71400.100414
1775.854099,444.123565,-6513.812290,-69561.471218
1775.856654,592.164754,-9474.636058,-71400.100414
1775.859208,3404.947333,6957.935855,-75690.235202
1775.861762,296.082377,4441.235652,-80440.027290
1775.864317,-1036.288319,2516.700203,-72932.291410
1775.866871,-148.041188,5773.606348,-64811.679131
1775.869425,-1776.494261,7698.141797,-68488.937521
1775.871980,2960.823768,11251.130318,-79367.493593
1775.874534,1628.453072,15396.283594,-78448.178995
1775.877088,2220.617826,5921.647536,-74464.482406
1775.879643,148.041188,-1184.329507,-70021.128517
1775.882197,-296.082377,-8438.347739,-71093.662214
1775.884751,1332.370696,888.247130,-72319.415011
1775.887306,-148.041188,9622.677246,-78448.178995
1775.889860,3404.947333,15840.407159,-78294.959896
1775.892414,1332.370696,592.164754,-72932.291410
1775.894969,1184.329507,-6069.688724,-66343.870127
1775.897523,2516.700203,-1184.329507,-70480.785816
1775.900077,-740.205942,6365.771101,-77835.302597
1775.902631,-148.041188,9622.677246,-81206.122788
1775.905186,-740.205942,14656.077652,-72625.853210
1775.907740,0.000000,3256.906145,-72012.976812
1775.910294,4145.153275,5625.565159,-69408.252119
1775.912849,444.123565,13027.624579,-72319.415011
1775.915403,444.123565,14359.995275,-77528.864398
1775.917957,-2072.576638,2220.617826,-80593.246390
1775.920512,740.205942,-3256.906145,-72319.415011
1775.923066,-592.164754,-6513.812290,-65118.117330
1775.925620,-1332.370696,-5921.647536,-71093.662214
1775.928175,1628.453072,3404.947333,-78294.959896
1775.930729,296.082377,6809.894666,-78907.836294
1775.933283,2812.782580,-1332.370696,-72319.415011
1775.935843,1036.288319,-11251.130318,-69255.033019
1775.938403,-1332.370696,-12583.501014,-71859.757712
1775.940964,-1480.411884,-1776.494261,-74311.263306
1775.943524,-444.123565,3404.947333,-77988.521696
1775.946084,2516.700203,2664.741391,-76609.549800
1775.948644,1628.453072,-5181.441594,-70327.566716
1775.951204,1924.535449,-3404.947333,-67876.061123
1775.953764,444.123565,-8142.265362,-72166.195912
1775.956324,-888.247130,-2072.576638,-77682.083497
1775.958884,0.000000,9770.718434,-73851.606007
1775.961444,-296.082377,-148.041188,-75230.577904
1775.964005,1332.370696,-10510.924376,-71400.100414
1775.966565,2368.659014,7698.141797,-67722.842023
1775.969125,1628.453072,-2516.700203,-73545.167808
1775.971685,444.123565,-2368.659014,-75996.673402
1775.974245,-296.082377,-5033.400406,-77375.645298
1775.976805,-1332.370696,-14359.995275,-74158.044206
1775.979365,-1776.494261,-12879.583391,-71246.881314
1775.981925,1924.535449,-11695.253884,-72319.415011
1775.984486,3108.864956,9326.594869,-72472.634111
1775.987046,1480.411884,7846.182985,-77682.083497
1775.989606,3404.947333,9178.553681,-76149.892501
1775.992166,-1184.329507,-1924.535449,-72012.976812
1775.994726,-2368.659014,-10362.883188,-68642.156621
1775.997286,-1480.411884,-9918.759623,-73238.729609
1775.999846,444.123565,6217.729913,-77069.207099
1776.002406,2664.741391,8586.388927,-77988.521696
1776.004966,-148.041188,4589.276840,-71553.319513
1776.007527,-592.164754,7105.977043,-66497.089226
1776.010087,-296.082377,5181.441594,-72472.634111
1776.012647,0.000000,12731.542202,-78141.740796
1776.015207,740.205942,11103.089130,-77988.521696
1776.017767,-1036.288319,6809.894666,-74158.044206
1776.020327,3108.864956,-8586.388927,-71093.662214
1776.022887,3108.864956,296.082377,-68182.499322
1776.025447,2220.617826,1184.329507,-72012.976812
1776.028007,148.041188,16728.654289,-76762.768900
1776.030568,-2220.617826,3849.070898,-79980.369991
1776.033128,592.164754,-7550.100608,-73085.510509
1776.035688,888.247130,2220.617826,-65271.336430
1776.038252,1332.370696,6069.688724,-72779.072310
1776.040816,2812.782580,7698.141797,-78754.617194
1776.043380,296.082377,13767.830521,-76762.768900
1776.045944,1628.453072,8734.430116,-72012.976812
1776.048507,148.041188,9030.512492,-72012.976812
1776.051071,-148.041188,1480.411884,-72166.195912
1776.053635,3256.906145,15396.283594,-71093.662214
1776.056199,1924.535449,4885.359217,-77835.302597
1776.058763,2516.700203,-888.247130,-77069.207099
1776.061327,1924.535449,-8586.388927,-69867.909418
1776.063891,-888.247130,148.041188,-68488.937521
1776.066455,-444.123565,148.041188,-76456.330700
1776.069019,-2368.659014,-444.123565,-79061.055394
1776.071583,1776.494261,592.164754,-71706.538613
1776.074147,1036.288319,-3701.029710,-70634.004916
1776.076711,148.041188,-11695.253884,-74770.920605
1776.079275,444.123565,-4293.194464,-73851.606007
1776.081839,-888.247130,-296.082377,-73085.510509
1776.084403,-148.041188,0.000000,-76149.892501
1776.086967,-2072.576638,-6365.771101,-74924.139704
1776.089531,1036.288319,-296.082377,-69714.690318
1776.092094,-296.082377,-6809.894666,-71859.757712
1776.094658,1184.329507,-8586.388927,-76915.987999
1776.097222,2368.659014,1776.494261,-73851.606007
1776.099786,740.205942,9030.512492,-72472.634111
1776.102350,-3404.947333,-7402.059420,-75537.016103
1776.104914,0.000000,-5921.647536,-74004.825107
1776.107478,2368.659014,5329.482782,-69867.909418
1776.110042,888.247130,-9622.677246,-75230.577904
1776.112606,1332.370696,-5033.400406,-74770.920605
1776.115170,1776.494261,-16728.654289,-75690.235202
1776.117734,1036.288319,-6069.688724,-68948.594820
1776.120298,1184.329507,-9474.636058,-73545.167808
1776.122862,148.041188,4737.318029,-75383.797003
1776.125426,0.000000,10214.842000,-74158.044206
1776.127990,1628.453072,5181.441594,-73545.167808
1776.130554,2072.576638,-6513.812290,-72779.072310
1776.133117,0.000000,-8290.306550,-70174.347617
1776.135681,1924.535449,1184.329507,-72472.634111
1776.138245,1776.494261,3849.070898,-79673.931792
1776.140813,-1036.288319,4589.276840,-77222.426198
1776.143380,-444.123565,8142.265362,-68795.375720
1776.145947,-740.205942,9178.553681,-67876.061123
1776.148514,444.123565,5329.482782,-76456.330700
1776.151081,1036.288319,11399.171507,-77375.645298
1776.153648,1332.370696,9474.636058,-72779.072310
1776.156216,-444.123565,2516.700203,-72932.291410
1776.158783,-148.041188,-6809.894666,-74311.263306
1776.161350,1332.370696,1480.411884,-70174.347617
1776.163917,-1184.329507,11103.089130,-73851.606007
1776.166484,-888.247130,888.247130,-79673.931792
1776.169052,3108.864956,1776.494261,-74770.920605
1776.171619,2516.700203,8290.306550,-67109.965625
1776.174186,-1628.453072,-148.041188,-73391.948708
1776.176753,-888.247130,3404.947333,-78141.740796
1776.179320,0.000000,14656.077652,-77375.645298
1776.181887,1628.453072,10362.883188,-71246.881314
1776.184455,1332.370696,12435.459826,-73085.510509
1776.187022,888.247130,5033.400406,-71859.757712
1776.189589,1924.535449,11251.130318,-70634.004916
1776.192156,888.247130,7846.182985,-77222.426198
1776.194723,2664.741391,-1628.453072,-79061.055394
1776.197291,1184.329507,-8290.306550,-72319.415011
1776.199858,-1184.329507,-1036.288319,-68642.156621
1776.202425,148.041188,-1036.288319,-76762.768900
1776.204992,888.247130,-592.164754,-76456.330700
1776.207559,1776.494261,3997.112087,-70327.566716
1776.210126,2516.700203,-1332.370696,-71859.757712
1776.212694,740.205942,-11399.171507,-77222.426198
1776.215261,-592.164754,-7402.059420,-74004.825107
1776.217828,-888.247130,740.205942,-70327.566716
1776.220395,-1776.494261,-2220.617826,-74924.139704
1776.222962,1628.453072,-6513.812290,-75077.358804
1776.225530,2220.617826,592.164754,-69561.471218
1776.228097,592.164754,-2664.741391,-73391.948708
1776.230664,1924.535449,-3404.947333,-75843.454302
1776.233231,-444.123565,-10362.883188,-76915.987999
1776.235798,592.164754,5625.565159,-70174.347617
1776.238365,-1184.329507,-2220.617826,-75230.577904
1776.240933,-444.123565,-8586.388927,-76149.892501
1776.243458,2664.741391,6365.771101,-69714.690318
1776.245982,592.164754,-11547.212695,-75383.797003
1776.248507,-1184.329507,-8438.347739,-75996.673402
1776.251032,-740.205942,-10066.800811,-72472.634111
1776.253557,2368.659014,-6217.729913,-70940.443115
1776.256082,2220.617826,-444.123565,-74004.825107
1776.258607,2368.659014,5181.441594,-75230.577904
1776.261132,1924.535449,10658.965565,-71400.100414
1776.263657,148.041188,-592.164754,-73545.167808
1776.266182,0.000000,-9474.636058,-75077.358804
1776.268707,444.123565,-3552.988522,-73238.729609
1776.271232,1480.411884,8882.471304,-74004.825107
1776.273757,1776.494261,2220.617826,-76915.987999
1776.276282,1628.453072,3552.988522,-71093.662214
1776.278807,-888.247130,10658.965565,-66343.870127
1776.281332,1924.535449,10362.883188,-74770.920605
1776.283857,148.041188,7698.141797,-79673.931792
1776.286382,-1184.329507,9474.636058,-74770.920605
1776.288907,-1480.411884,3997.112087,-71246.881314
1776.291432,1480.411884,-3256.906145,-72779.072310
1776.293957,2220.617826,1036.288319,-72472.634111
1776.296482,1184.329507,16284.530724,-72012.976812
1776.299007,-2960.823768,-9622.677246,-80133.589091
1776.301532,1480.411884,1036.288319,-75996.673402
1776.304056,592.164754,15248.242405,-68029.280222
1776.306581,-740.205942,-12435.459826,-73698.386908
1776.309106,1924.535449,15544.324782,-70940.443115
1776.311631,-444.123565,-592.164754,-81359.341888
1776.314156,4293.194464,18505.148550,-74158.044206
1776.316681,2516.700203,13027.624579,-69714.690318
1776.319206,-1184.329507,2960.823768,-72472.634111
1776.321731,0.000000,9918.759623,-72166.195912
1776.324256,-592.164754,3849.070898,-75690.235202
1776.326781,1480.411884,0.000000,-75996.673402
1776.329306,1628.453072,-9030.512492,-73545.167808
1776.331831,2220.617826,1184.329507,-70021.128517
1776.334356,0.000000,-2664.741391,-75383.797003
1776.336881,296.082377,-1924.535449,-74617.701505
1776.339406,444.123565,-1776.494261,-73391.948708
1776.341931,2220.617826,1036.288319,-73085.510509
1776.344467,1036.288319,-8882.471304,-77069.207099
1776.347003,1184.329507,-5181.441594,-74158.044206
1776.349540,1924.535449,-2072.576638,-70480.785816
1776.352076,1036.288319,-592.164754,-71553.319513
1776.354613,592.164754,-7698.141797,-76915.987999
1776.357149,-296.082377,-296.082377,-72472.634111
1776.359685,-1628.453072,-4589.276840,-73391.948708
1776.362222,296.082377,2220.617826,-72932.291410
1776.364758,2516.700203,3701.029710,-71859.757712
1776.367294,1036.288319,1776.494261,-72319.415011
1776.369831,592.164754,5181.441594,-75537.016103
1776.372367,-1776.494261,-9474.636058,-75537.016103
1776.374903,1480.411884,444.123565,-68029.280222
1776.377440,-2220.617826,-12435.459826,-73545.167808
1776.379976,0.000000,-14359.995275,-75843.454302
1776.382513,-1036.288319,-9770.718434,-73238.729609
1776.385049,2516.700203,-3701.029710,-71706.538613
1776.387585,1924.535449,6513.812290,-70174.347617
1776.390122,-148.041188,1332.370696,-76456.330700
1776.392658,148.041188,2812.782580,-72779.072310
1776.395194,148.041188,-3849.070898,-70940.443115
1776.397731,-1036.288319,-2664.741391,-74464.482406
1776.400267,1332.370696,444.123565,-75537.016103
1776.402803,3849.070898,4145.153275,-75996.673402
1776.405340,592.164754,4145.153275,-73238.729609
1776.407876,0.000000,8142.265362,-70787.224015
1776.410412,444.123565,5773.606348,-71246.881314
1776.412949,1480.411884,12139.377449,-76303.111601
1776.415485,-888.247130,9918.759623,-76609.549800
1776.418022,740.205942,7254.018232,-72932.291410
1776.420558,2072.576638,1480.411884,-69714.690318
1776.423094,1480.411884,-1776.494261,-72319.415011
1776.425631,2516.700203,6957.935855,-73545.167808
1776.428167,740.205942,-9178.553681,-79061.055394
1776.430703,-296.082377,13027.624579,-73085.510509
1776.433240,-592.164754,-3849.070898,-74924.139704
1776.435776,-592.164754,2072.576638,-68948.594820
1776.438312,2072.576638,11547.212695,-69408.252119
1776.440849,888.247130,5773.606348,-80593.246390
1776.443385,3404.947333,16876.695478,-79061.055394
1776.445931,-444.123565,5921.647536,-73545.167808
1776.448477,888.247130,14211.954086,-66956.746525
1776.451023,-1184.329507,2220.617826,-73545.167808
1776.453569,-1184.329507,8882.471304,-75077.358804
1776.456115,296.082377,-1480.411884,-76149.892501
1776.458660,2812.782580,-592.164754,-73698.386908
1776.461206,-2072.576638,-1776.494261,-73545.167808
1776.463752,-148.041188,-5477.523971,-73391.948708
1776.466298,-740.205942,-2368.659014,-72319.415011
1776.468844,148.041188,-1036.288319,-73085.510509
1776.471390,888.247130,-740.205942,-74004.825107
1776.473936,296.082377,-5181.441594,-75690.235202
1776.476482,2072.576638,-1332.370696,-72932.291410
1776.479028,888.247130,-4885.359217,-71859.757712
1776.481573,2220.617826,-4589.276840,-72012.976812
1776.484119,888.247130,-4885.359217,-72779.072310
1776.486665,-1036.288319,-2220.617826,-75230.577904
1776.489211,0.000000,-4145.153275,-75230.577904
1776.491757,3108.864956,-10214.842000,-74464.482406
1776.494303,2664.741391,4589.276840,-69714.690318
1776.496849,2664.741391,5477.523971,-72932.291410
1776.499395,444.123565,-2368.659014,-76609.549800
1776.501941,0.000000,-2516.700203,-72779.072310
1776.504487,740.205942,-3108.864956,-71093.662214
1776.507032,296.082377,-15692.365970,-75077.358804
1776.509578,1480.411884,-9030.512492,-71859.757712
1776.512124,1924.535449,-7698.141797,-70787.224015
1776.514670,1628.453072,-2220.617826,-74770.920605
1776.517216,2220.617826,444.123565,-76915.987999
1776.519762,148.041188,9178.553681,-71859.757712
1776.522308,-296.082377,2368.659014,-72625.853210
1776.524854,-1480.411884,-7402.059420,-73391.948708
1776.527400,0.000000,-1924.535449,-73085.510509
1776.529945,592.164754,4737.318029,-73851.606007
1776.532491,4145.153275,2960.823768,-77835.302597
1776.535037,148.041188,148.041188,-72472.634111
1776.537583,-2368.659014,9326.594869,-66956.746525
1776.540129,-1036.288319,8438.347739,-73698.386908
1776.542675,1332.370696,9178.553681,-80593.246390
1776.545221,-296.082377,11103.089130,-75690.235202
1776.547774,-296.082377,8142.265362,-70940.443115
1776.550326,1924.535449,-888.247130,-71859.757712
1776.552879,1776.494261,-5773.606348,-72166.195912
1776.555432,-1332.370696,-4145.153275,-73698.386908
1776.557985,592.164754,13471.748144,-74617.701505
1776.560537,-1184.329507,9474.636058,-76915.987999
1776.563090,592.164754,-1776.494261,-72779.072310
1776.565643,2812.782580,3404.947333,-68029.280222
1776.568196,888.247130,4589.276840,-74004.825107
1776.570749,1036.288319,7698.141797,-77375.645298
1776.573301,2072.576638,21910.095883,-74158.044206
1776.575854,0.000000,10066.800811,-74004.825107
1776.578407,-2072.576638,7105.977043,-72472.634111
1776.580960,-740.205942,2812.782580,-71706.538613
1776.583512,3256.906145,5773.606348,-72625.853210
1776.586065,1924.535449,-4737.318029,-76456.330700
1776.588618,1480.411884,-2664.741391,-74770.920605
1776.591171,1776.494261,592.164754,-72625.853210
1776.593723,-444.123565,-4145.153275,-73851.606007
1776.596276,740.205942,-6365.771101,-73085.510509
1776.598829,296.082377,-1776.494261,-71093.662214
1776.601382,-296.082377,-2664.741391,-75077.358804
1776.603935,1480.411884,-148.041188,-76303.111601
1776.606487,888.247130,-5921.647536,-72625.853210
1776.609040,1036.288319,-3404.947333,-68795.375720
1776.611593,-592.164754,-7994.224174,-73238.729609
1776.614146,-296.082377,-5329.482782,-76762.768900
1776.616698,444.123565,1480.411884,-74924.139704
1776.619251,-148.041188,-11843.295072,-75537.016103
1776.621804,2664.741391,7698.141797,-70940.443115
1776.624357,-444.123565,8734.430116,-71093.662214
1776.626910,0.000000,-14359.995275,-74617.701505
1776.629462,1184.329507,4885.359217,-73851.606007
1776.632015,-1480.411884,-12731.542202,-77988.521696
1776.634568,1036.288319,-10066.800811,-72472.634111
1776.637121,0.000000,-10214.842000,-70021.128517
1776.639673,2516.700203,-13471.748144,-73238.729609
1776.642226,296.082377,-3997.112087,-74924.139704
1776.644779,3552.988522,592.164754,-74924.139704
1776.647332,2960.823768,16876.695478,-73851.606007
1776.649890,-2516.700203,-2960.823768,-74464.482406
1776.652449,740.205942,-5329.482782,-69714.690318
1776.655008,1628.453072,-592.164754,-70787.224015
1776.657566,296.082377,6957.935855,-77375.645298
1776.660125,3404.947333,2960.823768,-78141.740796
1776.662684,1628.453072,6513.812290,-70634.004916
1776.665242,-3108.864956,5773.606348,-69101.813920
1776.667801,-148.041188,5477.523971,-76456.330700
1776.670360,2368.659014,8586.388927,-76762.768900
1776.672918,2072.576638,18061.024985,-72625.853210
1776.675477,592.164754,2072.576638,-74311.263306
1776.678036,592.164754,-4589.276840,-72472.634111
1776.680594,2220.617826,-1924.535449,-70327.566716
1776.683153,-888.247130,11251.130318,-73085.510509
1776.685712,-1924.535449,1776.494261,-80286.808190
1776.688270,148.041188,2960.823768,-73698.386908
1776.690829,1480.411884,6365.771101,-69255.033019
1776.693388,1628.453072,-3849.070898,-71246.881314
1776.695946,1924.535449,10362.883188,-73545.167808
1776.698505,1184.329507,14952.160028,-75077.358804
1776.701064,0.000000,16728.654289,-75996.673402
1776.703622,-296.082377,9326.594869,-73391.948708
1776.706181,740.205942,8586.388927,-70021.128517
1776.708740,2368.659014,1924.535449,-71553.319513
1776.711299,2220.617826,-8882.471304,-76915.987999
1776.713857,3256.906145,-2516.700203,-74464.482406
1776.716416,-296.082377,2516.700203,-73085.510509
1776.718975,-888.247130,-4441.235652,-75843.454302
1776.721533,740.205942,-6365.771101,-72779.072310
1776.724092,740.205942,-1628.453072,-67569.622924
1776.726651,2220.617826,296.082377,-74464.482406
1776.729209,592.164754,740.205942,-79214.274493
1776.731768,1332.370696,-2812.782580,-74924.139704
1776.734327,740.205942,-3404.947333,-69101.813920
1776.736885,296.082377,-8438.347739,-70634.004916
1776.739444,-148.041188,-7698.141797,-75077.358804
1776.742003,148.041188,-1184.329507,-74617.701505
1776.744561,444.123565,4441.235652,-75383.797003
1776.747120,-148.041188,-13915.871710,-78907.836294
1776.749679,1480.411884,-3849.070898,-70787.224015
1776.752242,2368.659014,1184.329507,-68335.718422
1776.754804,-1480.411884,-1628.453072,-75383.797003
1776.757367,-148.041188,-7698.141797,-78601.398095
1776.759929,-1036.288319,-8142.265362,-74158.044206
1776.762492,-148.041188,-16432.571912,-73391.948708
1776.765054,1036.288319,-11103.089130,-72625.853210
1776.767617,1184.329507,-5921.647536,-71246.881314
1776.770179,3108.864956,9918.759623,-72012.976812
1776.772742,0.000000,6957.935855,-77069.207099
1776.775305,-3256.906145,-740.205942,-75690.235202
1776.777867,-296.082377,-4293.194464,-69714.690318
1776.780430,1776.494261,2516.700203,-71246.881314
1776.782992,592.164754,2960.823768,-78141.740796
1776.785555,3552.988522,4885.359217,-75690.235202
1776.788117,1628.453072,7550.100608,-69408.252119
1776.790680,0.000000,6513.812290,-70940.443115
1776.793242,888.247130,2664.741391,-76762.768900
1776.795805,1036.288319,9474.636058,-74924.139704
1776.798367,2960.823768,14804.118840,-72319.415011
1776.800930,-1332.370696,1184.329507,-75537.016103
1776.803493,4293.194464,2516.700203,-72166.195912
1776.806055,1036.288319,1480.411884,-69867.909418
1776.808618,1776.494261,740.205942,-76609.549800
1776.811180,1332.370696,148.041188,-76456.330700
1776.813743,-740.205942,8438.347739,-73085.510509
1776.816305,-444.123565,148.041188,-71859.757712
1776.818868,1776.494261,-592.164754,-73545.167808
1776.821430,1924.535449,12583.501014,-71859.757712
1776.823993,296.082377,14804.118840,-74158.044206
1776.826555,1036.288319,17024.736666,-76303.111601
1776.829118,-296.082377,11251.130318,-74770.920605
1776.831680,-2220.617826,9030.512492,-69408.252119
1776.834243,740.205942,-4441.235652,-71859.757712
1776.836806,740.205942,-7402.059420,-75537.016103
1776.839368,-740.205942,-3997.112087,-74770.920605
1776.841931,3701.029710,5181.441594,-73391.948708
1776.844493,-888.247130,-5625.565159,-76149.892501
1776.847056,296.082377,-5625.565159,-70480.785816
1776.849618,0.000000,-4737.318029,-68488.937521
1776.852181,-592.164754,-2664.741391,-75690.235202
1776.854747,-1184.329507,1332.370696,-79061.055394
1776.857313,1332.370696,-1184.329507,-74617.701505
1776.859879,2812.782580,-4293.194464,-69561.471218
1776.862445,2220.617826,-8438.347739,-70634.004916
1776.865011,1184.329507,-6809.894666,-73238.729609
1776.867577,-296.082377,3404.947333,-74004.825107
1776.870143,0.000000,-4441.235652,-77682.083497
1776.872709,296.082377,1924.535449,-73851.606007
1776.875275,1924.535449,-2072.576638,-71093.662214
1776.877841,3108.864956,-6957.935855,-70634.004916
1776.880407,1036.288319,592.164754,-73698.386908
1776.882973,1332.370696,-10658.965565,-76915.987999
1776.885539,-592.164754,-5773.606348,-73851.606007
1776.888105,-148.041188,-19393.395680,-75077.358804
1776.890671,-740.205942,-6957.935855,-71553.319513
1776.893237,1628.453072,-4145.153275,-72319.415011
1776.895803,4145.153275,10807.006753,-72779.072310
1776.898369,740.205942,5921.647536,-75843.454302
1776.900935,148.041188,-1924.535449,-74924.139704
1776.903501,-888.247130,-3404.947333,-71859.757712
1776.906067,-296.082377,6809.894666,-73085.510509
1776.908633,888.247130,3701.029710,-76609.549800
1776.911199,-1332.370696,2368.659014,-74158.044206
1776.913764,1480.411884,8734.430116,-69561.471218
1776.916330,888.247130,3849.070898,-75230.577904
1776.918896,1480.411884,8882.471304,-76915.987999
1776.921462,296.082377,11103.089130,-72319.415011
1776.924028,-1332.370696,4737.318029,-73085.510509
1776.926594,-1332.370696,2516.700203,-74311.263306
1776.929160,444.123565,7698.141797,-72012.976812
1776.931726,2516.700203,-4293.194464,-73851.606007
1776.934292,1776.494261,2516.700203,-74004.825107
1776.936858,2368.659014,-2516.700203,-77222.426198
1776.939424,-148.041188,-1184.329507,-72932.291410
1776.941990,-592.164754,7254.018232,-69714.690318
1776.944556,-148.041188,4293.194464,-75537.016103
1776.947122,1332.370696,19689.478057,-74924.139704
1776.949688,1776.494261,11695.253884,-75996.673402
1776.952254,3108.864956,19097.313304,-72012.976812
1776.954820,740.205942,1628.453072,-73851.606007
1776.957389,1776.494261,1036.288319,-70480.785816
1776.959958,-148.041188,-10658.965565,-73085.510509
1776.962527,-1036.288319,592.164754,-75230.577904
1776.965096,296.082377,-1480.411884,-77835.302597
1776.967664,1480.411884,-3256.906145,-74004.825107
1776.970233,3701.029710,-4441.235652,-68488.937521
1776.972802,1036.288319,-5625.565159,-70480.785816
1776.975371,1332.370696,-4885.359217,-76762.768900
1776.977940,-148.041188,1776.494261,-76915.987999
1776.980509,-1184.329507,-740.205942,-75537.016103
1776.983078,444.123565,-6217.729913,-72625.853210
1776.985646,1184.329507,-7698.141797,-70480.785816
1776.988215,1036.288319,-3849.070898,-72625.853210
1776.990784,1036.288319,-2664.741391,-76149.892501
1776.993353,740.205942,3108.864956,-76149.892501
1776.995922,-1332.370696,3552.988522,-73851.606007
1776.998491,-1480.411884,-7105.977043,-72932.291410
1777.001059,444.123565,-6809.894666,-71246.881314
1777.003628,740.205942,-1776.494261,-70327.566716
1777.006197,1776.494261,-6365.771101,-77069.207099
1777.008766,1184.329507,-12139.377449,-78601.398095
1777.011335,1184.329507,-13323.706956,-72166.195912
1777.013904,-444.123565,-3256.906145,-69714.690318
1777.016473,-296.082377,-3997.112087,-73545.167808
1777.019041,0.000000,8882.471304,-74770.920605
1777.021610,148.041188,4145.153275,-73698.386908
1777.024179,740.205942,-444.123565,-73085.510509
1777.026748,3552.988522,5181.441594,-72166.195912
1777.029317,2220.617826,148.041188,-74924.139704
1777.031886,1332.370696,3552.988522,-73391.948708
1777.034454,296.082377,6957.935855,-71553.319513
1777.037023,-888.247130,6513.812290,-74770.920605
1777.039592,3404.947333,8882.471304,-75690.235202
1777.042161,3404.947333,7105.977043,-73698.386908
1777.044730,888.247130,10807.006753,-71553.319513
1777.047299,296.082377,2664.741391,-73238.729609
1777.049867,148.041188,4737.318029,-73851.606007
1777.052436,0.000000,148.041188,-74464.482406
1777.055005,-444.123565,-3849.070898,-75537.016103
1777.057574,1776.494261,7550.100608,-72166.195912
1777.060105,1628.453072,4145.153275,-72932.291410
1777.062637,1184.329507,-296.082377,-74004.825107
1777.065168,1924.535449,11991.336260,-71093.662214
1777.067699,-2072.576638,9918.759623,-74158.044206
1777.070231,-296.082377,18357.107362,-75843.454302
1777.072762,-2368.659014,10214.842000,-76609.549800
1777.075294,148.041188,10510.924376,-70940.443115
1777.077825,2072.576638,1036.288319,-70940.443115
1777.080356,888.247130,-6069.688724,-74158.044206
1777.082888,1036.288319,-444.123565,-72779.072310
1777.085419,-888.247130,-1628.453072,-76149.892501
1777.087950,0.000000,-3701.029710,-76149.892501
1777.090482,2368.659014,-6513.812290,-69101.813920
1777.093013,1480.411884,-2072.576638,-67263.184724
1777.095544,1332.370696,-4589.276840,-76149.892501
1777.098076,888.247130,296.082377,-77682.083497
1777.100607,-444.123565,-1184.329507,-73545.167808
1777.103138,1036.288319,-4589.276840,-71400.100414
1777.105670,-1036.288319,-9178.553681,-71859.757712
1777.108201,-592.164754,-7105.977043,-73238.729609
1777.110733,2220.617826,1332.370696,-74004.825107
1777.113264,1332.370696,-3701.029710,-78448.178995
1777.115795,2220.617826,-1480.411884,-75077.358804
1777.118327,740.205942,-6513.812290,-70940.443115
1777.120858,-888.247130,1480.411884,-69255.033019
1777.123389,-1924.535449,-14952.160028,-78754.617194
1777.125921,-888.247130,-5477.523971,-74770.920605
1777.128452,1332.370696,-12731.542202,-74311.263306
1777.130983,3256.906145,-2220.617826,-72166.195912
1777.133515,-888.247130,-8438.347739,-73238.729609
1777.136046,1184.329507,4145.153275,-69408.252119
1777.138578,-888.247130,148.041188,-74770.920605
1777.141109,-1480.411884,1184.329507,-75996.673402
1777.143640,-1776.494261,1036.288319,-74617.701505
1777.146172,3108.864956,11695.253884,-71706.538613
1777.148703,2664.741391,1924.535449,-76303.111601
1777.151234,1480.411884,2220.617826,-73391.948708
1777.153766,888.247130,6809.894666,-68488.937521
1777.156297,-444.123565,8586.388927,-72319.415011
1777.158828,888.247130,6513.812290,-79214.274493
1777.161370,444.123565,6365.771101,-74617.701505
1777.163911,1776.494261,10658.965565,-68642.156621
1777.166453,1628.453072,3849.070898,-72319.415011
1777.168994,1628.453072,1036.288319,-75230.577904
1777.171535,2220.617826,1924.535449,-73545.167808
1777.174077,-888.247130,1776.494261,-73851.606007
1777.176618,-1184.329507,4441.235652,-74158.044206
1777.179160,-1184.329507,-1184.329507,-75690.235202
1777.181701,1184.329507,5625.565159,-72625.853210
1777.184243,2072.576638,12139.377449,-72625.853210
1777.186784,2812.782580,15988.448347,-74004.825107
1777.189325,1036.288319,16580.613101,-75843.454302
1777.191867,-888.247130,11103.089130,-74770.920605
1777.194408,-888.247130,4293.194464,-72012.976812
1777.196950,-296.082377,-8438.347739,-73085.510509
1777.199491,1184.329507,-7698.141797,-71859.757712
1777.202032,592.164754,2368.659014,-72779.072310
1777.204574,-296.082377,-2812.782580,-78448.178995
1777.207115,1332.370696,-4293.194464,-73238.729609
1777.209657,740.205942,-6365.771101,-68029.280222
1777.212198,-592.164754,-3849.070898,-71400.100414
1777.214739,-1480.411884,-4441.235652,-77988.521696
1777.217281,-888.247130,-1776.494261,-77069.207099
1777.219822,1480.411884,2368.659014,-72625.853210
1777.222364,2960.823768,-5625.565159,-71246.881314
1777.224905,1776.494261,-10955.047942,-71706.538613
1777.227447,-1924.535449,-888.247130,-70787.224015
1777.229988,-740.205942,-5773.606348,-79367.493593
1777.232529,1776.494261,3108.864956,-77069.207099
1777.235071,888.247130,-1628.453072,-74004.825107
1777.237612,1776.494261,-4441.235652,-69408.252119
1777.240154,2072.576638,-5921.647536,-72166.195912
1777.242664,1628.453072,-12583.501014,-74004.825107
1777.245175,1332.370696,-4293.194464,-73698.386908
1777.247686,-888.247130,-13619.789333,-77528.864398
1777.250196,-888.247130,-2664.741391,-74464.482406
1777.252707,1628.453072,-8142.265362,-70634.004916
1777.255218,1924.535449,7698.141797,-69408.252119
1777.257729,1776.494261,-148.041188,-75230.577904
1777.260239,-296.082377,3108.864956,-75537.016103
1777.262750,148.041188,9030.512492,-74770.920605
1777.265261,444.123565,7846.182985,-74924.139704
1777.267772,-296.082377,-592.164754,-74004.825107
1777.270282,444.123565,2516.700203,-67876.061123
1777.272793,-1036.288319,7846.182985,-70787.224015
1777.275304,2960.823768,6809.894666,-80133.589091
1777.277814,888.247130,8142.265362,-75996.673402
1777.280325,444.123565,8142.265362,-69714.690318
1777.282836,-148.041188,6069.688724,-70021.128517
1777.285347,-1628.453072,3108.864956,-74770.920605
1777.287857,-148.041188,3552.988522,-75077.358804
1777.290368,740.205942,-148.041188,-75537.016103
1777.292879,1036.288319,-4145.153275,-76609.549800
1777.295389,3404.947333,4589.276840,-71553.319513
1777.297900,1184.329507,7254.018232,-70480.785816
1777.300411,-2220.617826,10955.047942,-74311.263306
1777.302922,-592.164754,15396.283594,-78601.398095
1777.305432,-296.082377,16728.654289,-76303.111601
1777.307943,1628.453072,15248.242405,-72012.976812
1777.310454,1776.494261,3552.988522,-71706.538613
1777.312965,1480.411884,-12139.377449,-71400.100414
1777.315475,3108.864956,-4441.235652,-70787.224015
1777.317986,-592.164754,0.000000,-76762.768900
1777.320497,-592.164754,-2664.741391,-79980.369991
1777.323007,2812.782580,-1628.453072,-71400.100414
1777.325518,444.123565,-3849.070898,-66037.431928
1777.328029,1776.494261,-6217.729913,-72472.634111
1777.330540,888.247130,-4885.359217,-77375.645298
1777.333050,0.000000,2960.823768,-75996.673402
1777.335561,148.041188,-148.041188,-74158.044206
1777.338072,1924.535449,-10955.047942,-73851.606007
1777.340583,-148.041188,-10658.965565,-70480.785816
1777.343108,-1036.288319,-2812.782580,-70174.347617
1777.345633,2812.782580,11695.253884,-76609.549800
1777.348158,296.082377,4293.194464,-79827.150892
1777.350683,1332.370696,-7994.224174,-73698.386908
1777.353208,1036.288319,2812.782580,-66037.431928
1777.355733,148.041188,-19393.395680,-73391.948708
1777.358258,148.041188,-3108.864956,-73238.729609
1777.360783,-1628.453072,-14211.954086,-78907.836294
1777.363308,148.041188,-1184.329507,-74311.263306
1777.365833,1628.453072,-12435.459826,-75230.577904
1777.368358,1628.453072,-3849.070898,-70327.566716
1777.370883,0.000000,4589.276840,-69408.252119
1777.373408,-1332.370696,-148.041188,-76303.111601
1777.375933,-888.247130,3108.864956,-77528.864398
1777.378458,-444.123565,14508.036463,-73698.386908
1777.380983,1332.370696,5477.523971,-74464.482406
1777.383508,-888.247130,-4145.153275,-71093.662214
1777.386033,2220.617826,6661.853478,-67416.403824
1777.388558,592.164754,8734.430116,-73851.606007
1777.391083,2368.659014,8734.430116,-80133.589091
1777.393608,296.082377,8142.265362,-73545.167808
1777.396133,888.247130,8142.265362,-68182.499322
1777.398658,888.247130,1036.288319,-70634.004916
1777.401183,2960.823768,5033.400406,-74004.825107
1777.403708,1628.453072,1184.329507,-75843.454302
1777.406234,2516.700203,5625.565159,-74770.920605
1777.408759,296.082377,-5477.523971,-76303.111601
1777.411284,296.082377,5625.565159,-71400.100414
1777.413809,148.041188,3108.864956,-73085.510509
1777.416334,0.000000,15100.201217,-74004.825107
1777.418859,1036.288319,20429.683999,-75690.235202
1777.421384,888.247130,14211.954086,-76609.549800
1777.423909,1924.535449,9918.759623,-72166.195912
1777.426434,148.041188,-8586.388927,-72012.976812
1777.428959,888.247130,-11399.171507,-72319.415011
1777.431484,-2220.617826,-1628.453072,-72012.976812
1777.434009,-740.205942,-1036.288319,-79367.493593
1777.436534,-1332.370696,148.041188,-76915.987999
1777.439059,2220.617826,-4737.318029,-70021.128517
1777.441584,2664.741391,-4145.153275,-68642.156621
1777.444121,-444.123565,-5625.565159,-77375.645298
1777.446659,-592.164754,-2516.700203,-77682.083497
1777.449196,-1036.288319,2516.700203,-74004.825107
1777.451733,592.164754,-4737.318029,-73238.729609
1777.454270,296.082377,-13915.871710,-72779.072310
1777.456807,1776.494261,-9770.718434,-69867.909418
1777.459345,1628.453072,1332.370696,-72166.195912
1777.461882,1924.535449,9030.512492,-78294.959896
1777.464419,444.123565,4885.359217,-75383.797003
1777.466956,-1480.411884,-5181.441594,-69867.909418
1777.469494,-148.041188,-9770.718434,-70480.785816
1777.472031,296.082377,-16432.571912,-74924.139704
1777.474568,2516.700203,-3256.906145,-72472.634111
1777.477105,2072.576638,-3552.988522,-76149.892501
1777.479643,2220.617826,-5033.400406,-77222.426198
1777.482180,-296.082377,-8586.388927,-73238.729609
1777.484717,-1184.329507,1184.329507,-67569.622924
1777.487254,-444.123565,888.247130,-73238.729609
1777.489791,1332.370696,6957.935855,-76762.768900
1777.492329,1628.453072,14804.118840,-77375.645298
1777.494866,1332.370696,1776.494261,-75230.577904
1777.497403,-1480.411884,-148.041188,-68795.375720
1777.499940,-740.205942,3256.906145,-68948.594820
1777.502478,-296.082377,7402.059420,-75996.673402
1777.505015,-148.041188,7994.224174,-81206.122788
1777.507552,1924.535449,10066.800811,-75996.673402
1777.510089,444.123565,5773.606348,-68335.718422
1777.512627,-148.041188,3997.112087,-70174.347617
1777.515164,-592.164754,-11547.212695,-76762.768900
1777.517701,1628.453072,12139.377449,-73545.167808
1777.520238,-296.082377,3404.947333,-76762.768900
1777.522776,1184.329507,-4441.235652,-75843.454302
1777.525313,4885.359217,9474.636058,-71246.881314
1777.527850,-888.247130,740.205942,-70787.224015
1777.530387,3552.988522,25463.084405,-70634.004916
1777.532924,888.247130,13471.748144,-79520.712692
1777.535462,-592.164754,20873.807564,-75383.797003
1777.537999,592.164754,-3701.029710,-72012.976812
1777.540536,2072.576638,-9030.512492,-70174.347617
1777.543073,592.164754,-10807.006753,-70787.224015
1777.545621,2220.617826,1628.453072,-73545.167808
1777.548168,1332.370696,-3849.070898,-80440.027290
1777.550715,1036.288319,1036.288319,-74770.920605
1777.553263,-296.082377,-7846.182985,-68182.499322
1777.555810,-148.041188,-5181.441594,-68795.375720
1777.558357,-740.205942,-5477.523971,-75690.235202
1777.560904,740.205942,1332.370696,-76915.987999
1777.563452,1924.535449,1184.329507,-74004.825107
1777.565999,1332.370696,-8142.265362,-73085.510509
1777.568546,888.247130,-11399.171507,-71246.881314
1777.571094,-740.205942,-12139.377449,-70634.004916
1777.573641,1036.288319,9474.636058,-73851.606007
1777.576188,-592.164754,148.041188,-79827.150892
1777.578736,148.041188,3256.906145,-75077.358804
1777.581283,444.123565,-10066.800811,-67876.061123
1777.583830,296.082377,-15100.201217,-73698.386908
1777.586378,-1776.494261,-17024.736666,-77988.521696
1777.588925,740.205942,-2220.617826,-74770.920605
1777.591472,296.082377,1924.535449,-72932.291410
1777.594019,-296.082377,-8290.306550,-77222.426198
1777.596567,1480.411884,-3108.864956,-70021.128517
1777.599114,0.000000,0.000000,-68335.718422
1777.601661,1480.411884,2812.782580,-73698.386908
1777.604209,2812.782580,12435.459826,-79367.493593
1777.606756,1332.370696,9030.512492,-75537.016103
1777.609303,-1776.494261,5329.482782,-68948.594820
1777.611851,592.164754,592.164754,-67722.842023
1777.614398,296.082377,2220.617826,-73851.606007
1777.616945,2664.741391,7994.224174,-77835.302597
1777.619492,2516.700203,14211.954086,-77528.864398
1777.622040,1184.329507,5773.606348,-75077.358804
1777.624587,1036.288319,1184.329507,-69867.909418
1777.627134,-444.123565,-296.082377,-69867.909418
1777.629682,-296.082377,-2664.741391,-76456.330700
1777.632229,2960.823768,8586.388927,-76149.892501
1777.634776,296.082377,5033.400406,-74158.044206
1777.637324,3701.029710,1184.329507,-73698.386908
1777.639871,1924.535449,7846.182985,-71706.538613
1777.642418,-1924.535449,8290.306550,-72012.976812
1777.644966,-296.082377,23390.507767,-70787.224015
1777.647520,-1480.411884,14211.954086,-80593.246390
1777.650075,-444.123565,10362.883188,-77682.083497
1777.652629,296.082377,-7254.018232,-71093.662214
1777.655184,3108.864956,-7105.977043,-68029.280222
1777.657739,-296.082377,-6069.688724,-75996.673402
1777.660293,-592.164754,-7550.100608,-78601.398095
1777.662848,444.123565,740.205942,-73698.386908
1777.665403,-1036.288319,-2220.617826,-71706.538613
1777.667957,296.082377,-7994.224174,-73391.948708
1777.670512,1628.453072,-3997.112087,-72779.072310
1777.673067,1776.494261,1480.411884,-73545.167808
1777.675621,1184.329507,2072.576638,-75996.673402
1777.678176,444.123565,-7698.141797,-75690.235202
1777.680731,-592.164754,-9326.594869,-69408.252119
1777.683285,-1036.288319,2220.617826,-69255.033019
1777.685840,-148.041188,-1480.411884,-76915.987999
1777.688395,296.082377,888.247130,-78294.959896
1777.690949,2664.741391,-2960.823768,-73391.948708
1777.693504,2220.617826,-1924.535449,-69101.813920
1777.696059,1036.288319,-12435.459826,-69714.690318
1777.698613,296.082377,-11991.336260,-74004.825107
1777.701168,-1628.453072,-12583.501014,-78448.178995
1777.703722,1924.535449,-3552.988522,-77988.521696
1777.706277,3256.906145,-740.205942,-72012.976812
1777.708832,2368.659014,444.123565,-69561.471218
1777.711386,1184.329507,-6809.894666,-71246.881314
1777.713941,1184.329507,3404.947333,-74770.920605
1777.716496,-444.123565,14656.077652,-77069.207099
1777.719050,0.000000,10362.883188,-78294.959896
1777.721605,-1776.494261,2516.700203,-73698.386908
1777.724160,444.123565,2812.782580,-65730.993728
1777.726714,1184.329507,6365.771101,-71706.538613
1777.729269,1628.453072,5921.647536,-79827.150892
1777.731824,1184.329507,12139.377449,-76915.987999
1777.734378,-1924.535449,3701.029710,-72625.853210
1777.736933,888.247130,1628.453072,-71553.319513
1777.739488,-1480.411884,-8734.430116,-72779.072310
1777.742042,3256.906145,20281.642811,-69255.033019
1777.744597,-444.123565,148.041188,-77835.302597
1777.747152,-592.164754,-444.123565,-79061.055394
1777.749710,4293.194464,17616.901420,-71093.662214
1777.752271,-2072.576638,-3256.906145,-71553.319513
1777.754831,-740.205942,22058.137072,-69714.690318
1777.757392,148.041188,11843.295072,-75690.235202
1777.759952,592.164754,24722.878463,-74311.263306
1777.762513,1332.370696,-1480.411884,-76762.768900
1777.765073,4885.359217,-4885.359217,-72319.415011
1777.767634,592.164754,-8438.347739,-68795.375720
1777.770194,1628.453072,-5921.647536,-72012.976812
1777.772755,148.041188,-3701.029710,-77682.083497
1777.775315,0.000000,-7550.100608,-75230.577904
1777.777876,1332.370696,4589.276840,-68488.937521
1777.780437,888.247130,-10658.965565,-75077.358804
1777.782997,2516.700203,1332.370696,-73851.606007
1777.785558,888.247130,-1776.494261,-73085.510509
1777.788118,2072.576638,2664.741391,-73238.729609
1777.790679,0.000000,-8734.430116,-75077.358804
1777.793239,-296.082377,-6365.771101,-74158.044206
1777.795800,-740.205942,-6661.853478,-70787.224015
1777.798360,1184.329507,5625.565159,-76303.111601
1777.800921,2812.782580,-592.164754,-77682.083497
1777.803481,1480.411884,-7254.018232,-72625.853210
1777.806042,1332.370696,-1628.453072,-65118.117330
1777.808603,-592.164754,-17024.736666,-76609.549800
1777.811163,-1036.288319,-10658.965565,-78448.178995
1777.813724,-444.123565,-8882.471304,-75383.797003
1777.816284,888.247130,6069.688724,-71553.319513
1777.818845,592.164754,-9622.677246,-75077.358804
1777.821405,1924.535449,-592.164754,-68182.499322
1777.823966,-2516.700203,444.123565,-71706.538613
1777.826526,444.123565,15544.324782,-77835.302597
1777.829087,-296.082377,9474.636058,-81512.560987
1777.831648,-740.205942,7254.018232,-72012.976812
1777.834208,1776.494261,4145.153275,-64964.898230
1777.836769,296.082377,1480.411884,-72166.195912
1777.839329,3108.864956,3108.864956,-77375.645298
1777.841890,2516.700203,11547.212695,-76609.549800
1777.844450,1776.494261,9326.594869,-75383.797003
1777.847011,-1184.329507,1924.535449,-73545.167808
1777.849571,592.164754,6217.729913,-69714.690318
1777.852137,1480.411884,-148.041188,-71706.538613
1777.854702,1036.288319,7402.059420,-75537.016103
1777.857268,2368.659014,4441.235652,-77222.426198
1777.859833,1628.453072,5773.606348,-73238.729609
1777.862399,2664.741391,7105.977043,-74464.482406
1777.864964,-1184.329507,8734.430116,-71706.538613
1777.867530,-1036.288319,19245.354492,-70327.566716
1777.870095,1776.494261,12287.418637,-77222.426198
1777.872660,1480.411884,9326.594869,-78754.617194
1777.875226,3108.864956,-13915.871710,-72319.415011
1777.877791,1184.329507,1332.370696,-65730.993728
1777.880357,0.000000,-13619.789333,-76149.892501
1777.882922,-148.041188,-7994.224174,-78448.178995
1777.885488,0.000000,-5329.482782,-73698.386908
1777.888053,444.123565,2072.576638,-68795.375720
1777.890619,-888.247130,-6513.812290,-75843.454302
1777.893184,2220.617826,-3256.906145,-73085.510509
1777.895750,1184.329507,3849.070898,-69561.471218
1777.898315,-148.041188,-3404.947333,-75996.673402
1777.900881,148.041188,-7402.059420,-77835.302597
1777.903446,-592.164754,-5181.441594,-71706.538613
1777.906011,0.000000,-9622.677246,-71093.662214
1777.908577,592.164754,-2960.823768,-74464.482406
1777.911142,3108.864956,-1480.411884,-75690.235202
1777.913708,444.123565,1184.329507,-70787.224015
1777.916273,-1480.411884,-8586.388927,-71400.100414
1777.918839,148.041188,-10955.047942,-74924.139704
1777.921404,1036.288319,-11843.295072,-76456.330700
1777.923970,3701.029710,-2072.576638,-74617.701505
1777.926535,1628.453072,-1480.411884,-73545.167808
1777.929101,740.205942,-4441.235652,-72625.853210
1777.931666,444.123565,-4145.153275,-70480.785816
1777.934231,-740.205942,7698.141797,-72932.291410
1777.936797,-1628.453072,12287.418637,-79061.055394
1777.939362,1776.494261,11103.089130,-77835.302597
1777.941928,1628.453072,6513.812290,-68948.594820
1777.944493,2072.576638,3256.906145,-68642.156621
1777.947059,740.205942,-2072.576638,-74158.044206
1777.949624,-296.082377,6809.894666,-76762.768900
1777.952190,-444.123565,10214.842000,-75843.454302
1777.954759,-2664.741391,4737.318029,-75077.358804
1777.957327,1036.288319,10807.006753,-70634.004916
1777.959896,296.082377,-9918.759623,-71553.319513
1777.962465,2960.823768,2516.700203,-71246.881314
1777.965034,3256.906145,14063.912898,-73391.948708
1777.967602,-2220.617826,-5033.400406,-79061.055394
1777.970171,-444.123565,16432.571912,-70327.566716
1777.972740,-444.123565,4885.359217,-75383.797003
1777.975309,-592.164754,15248.242405,-70174.347617
1777.977878,2072.576638,14952.160028,-72932.291410
1777.980446,2664.741391,19393.395680,-75077.358804
1777.983015,740.205942,-4293.194464,-76762.768900
1777.985584,3404.947333,-8586.388927,-71553.319513
1777.988153,444.123565,-2960.823768,-69561.471218
1777.990722,-2664.741391,-9918.759623,-76762.768900
1777.993290,2220.617826,-7402.059420,-75383.797003
1777.995859,1480.411884,-592.164754,-70327.566716
1777.998428,888.247130,-2960.823768,-73238.729609
1778.000997,592.164754,-6809.894666,-75996.673402
1778.003566,1776.494261,-1924.535449,-71859.757712
1778.006134,-888.247130,5033.400406,-70787.224015
1778.008703,296.082377,-4589.276840,-76456.330700
1778.011272,-148.041188,-3849.070898,-75077.358804
1778.013841,-740.205942,-740.205942,-68488.937521
1778.016409,1776.494261,2664.741391,-72472.634111
1778.018978,1480.411884,-5033.400406,-78448.178995
1778.021547,740.205942,-6365.771101,-74464.482406
1778.024116,592.164754,2812.782580,-65730.993728
1778.026685,-1628.453072,-15544.324782,-74770.920605
1778.029253,148.041188,-13323.706956,-79061.055394
1778.031822,296.082377,-8586.388927,-74004.825107
1778.034391,444.123565,3256.906145,-71093.662214
1778.036960,888.247130,-9622.677246,-75077.358804
1778.039529,1036.288319,-1480.411884,-69714.690318
1778.042097,-1332.370696,4589.276840,-71093.662214
1778.044666,-1480.411884,18801.230927,-76915.987999
1778.047235,1184.329507,7105.977043,-81359.341888
1778.049804,-148.041188,13471.748144,-70787.224015
1778.052373,1628.453072,2072.576638,-66343.870127
1778.054941,1184.329507,740.205942,-73238.729609
1778.057513,2072.576638,-1036.288319,-77682.083497
1778.060085,2516.700203,14952.160028,-75230.577904
1778.062656,-740.205942,3849.070898,-75996.673402
1778.065228,296.082377,-2812.782580,-74004.825107
1778.067800,1480.411884,13175.665768,-67263.184724
1778.070371,-296.082377,592.164754,-73238.729609
1778.072943,-296.082377,-3552.988522,-76609.549800
1778.075515,3108.864956,15396.283594,-74158.044206
1778.078086,-888.247130,3701.029710,-77222.426198
1778.080658,148.041188,12435.459826,-72166.195912
1778.083230,740.205942,6957.935855,-71093.662214
1778.085801,296.082377,22354.219448,-69867.909418
1778.088373,1628.453072,7994.224174,-78141.740796
1778.090945,3404.947333,3108.864956,-77222.426198
1778.093516,3108.864956,-2220.617826,-70480.785816
1778.096088,-592.164754,-6957.935855,-70327.566716
1778.098659,-1480.411884,-17616.901420,-76456.330700
1778.101231,1480.411884,-7994.224174,-73851.606007
1778.103803,-1332.370696,-888.247130,-70940.443115
1778.106374,148.041188,-4145.153275,-75537.016103
1778.108946,-296.082377,-3701.029710,-74924.139704
1778.111518,1628.453072,-1480.411884,-70327.566716
1778.114089,740.205942,3108.864956,-69867.909418
1778.116661,444.123565,-4589.276840,-76915.987999
1778.119233,0.000000,-4737.318029,-75843.454302
1778.121804,-296.082377,-11991.336260,-72932.291410
1778.124376,1184.329507,-444.123565,-70940.443115
1778.126948,444.123565,2812.782580,-74464.482406
1778.129519,1036.288319,-8882.471304,-75690.235202
1778.132091,1776.494261,-4293.194464,-70480.785816
1778.134663,296.082377,-12139.377449,-73238.729609
1778.137234,-592.164754,-8438.347739,-77528.864398
1778.139806,2220.617826,-5625.565159,-74617.701505
1778.142378,-148.041188,-5181.441594,-71859.757712
1778.144949,-740.205942,-5329.482782,-71706.538613
1778.147521,2220.617826,-5773.606348,-72012.976812
1778.150093,2072.576638,5921.647536,-72625.853210
1778.152664,888.247130,17764.942608,-75690.235202
1778.155236,1480.411884,10955.047942,-78448.178995
1778.157808,-1480.411884,9770.718434,-70021.128517
1778.160382,-148.041188,6069.688724,-67109.965625
1778.162956,888.247130,592.164754,-74311.263306
1778.165529,2664.741391,592.164754,-79673.931792
1778.168103,2072.576638,10807.006753,-74770.920605
1778.170677,1332.370696,5033.400406,-73391.948708
1778.173251,888.247130,5181.441594,-71553.319513
1778.175825,-2368.659014,5921.647536,-71859.757712
1778.178399,-1776.494261,296.082377,-73391.948708
1778.180973,3849.070898,13175.665768,-74464.482406
1778.183547,444.123565,4293.194464,-75383.797003
1778.186121,2516.700203,12731.542202,-72625.853210
1778.188695,3701.029710,7846.182985,-73698.386908
1778.191269,-2516.700203,10955.047942,-72625.853210
1778.193843,-1184.329507,13027.624579,-71400.100414
1778.196417,592.164754,13175.665768,-75843.454302
1778.198991,148.041188,-3108.864956,-77835.302597
1778.201565,-296.082377,-3997.112087,-71553.319513
1778.204139,3701.029710,-5033.400406,-70174.347617
1778.206713,0.000000,-14508.036463,-75230.577904
1778.209287,148.041188,-7105.977043,-72166.195912
1778.211861,148.041188,-6217.729913,-72472.634111
1778.214435,-1332.370696,296.082377,-75690.235202
1778.217009,-1184.329507,-6365.771101,-77835.302597
1778.219583,3256.906145,3849.070898,-69408.252119
1778.222157,888.247130,-740.205942,-70787.224015
1778.224731,2664.741391,-3256.906145,-74617.701505
1778.227305,296.082377,-16136.489536,-77069.207099
1778.229879,148.041188,1924.535449,-70327.566716
1778.232453,-148.041188,-2516.700203,-74924.139704
1778.235027,592.164754,-4885.359217,-75690.235202
1778.237601,888.247130,-5625.565159,-69867.909418
1778.240175,1628.453072,-5181.441594,-69561.471218
1778.242749,2516.700203,-13915.871710,-78294.959896
1778.245323,1628.453072,-6661.853478,-78601.398095
1778.247896,-740.205942,-740.205942,-72012.976812
1778.250470,-1776.494261,-7698.141797,-72319.415011
1778.253044,-1184.329507,-10807.006753,-73545.167808
1778.255618,1332.370696,-444.123565,-71246.881314
1778.258192,3552.988522,28127.825796,-72625.853210
1778.260766,2368.659014,9326.594869,-82278.656485
1778.263307,888.247130,12287.418637,-73545.167808
1778.265847,0.000000,3404.947333,-65577.774629
1778.268387,-1924.535449,3404.947333,-69101.813920
1778.270928,-444.123565,-5033.400406,-81512.560987
1778.273468,296.082377,10362.883188,-76609.549800
1778.276008,1036.288319,5477.523971,-72472.634111
1778.278549,1776.494261,-1628.453072,-73545.167808
1778.281089,888.247130,3256.906145,-71400.100414
1778.283630,-296.082377,5625.565159,-69867.909418
1778.286170,-2220.617826,0.000000,-76762.768900
1778.288710,-148.041188,13767.830521,-77222.426198
1778.291251,1924.535449,3108.864956,-79214.274493
1778.293791,1184.329507,14508.036463,-69867.909418
1778.296331,3552.988522,8586.388927,-68795.375720
1778.298872,1776.494261,16876.695478,-70940.443115
1778.301412,1036.288319,6513.812290,-77528.864398
1778.303952,592.164754,1036.288319,-76609.549800
1778.306493,-1628.453072,1332.370696,-74464.482406
1778.309033,0.000000,-11843.295072,-72012.976812
1778.311573,1480.411884,-12731.542202,-71246.881314
1778.314114,2812.782580,-11695.253884,-71859.757712
1778.316654,1628.453072,-1924.535449,-72625.853210
1778.319194,-148.041188,-3256.906145,-77988.521696
1778.321735,444.123565,2516.700203,-74311.263306
1778.324275,-296.082377,-5625.565159,-72166.195912
1778.326815,1184.329507,-3108.864956,-71706.538613
1778.329356,1924.535449,-3404.947333,-74311.263306
1778.331896,1036.288319,-8734.430116,-77069.207099
1778.334437,148.041188,2072.576638,-73238.729609
1778.336977,-148.041188,3552.988522,-72932.291410
1778.339517,-1776.494261,-10510.924376,-75690.235202
1778.342058,296.082377,-12139.377449,-71246.881314
1778.344598,3849.070898,-4441.235652,-68795.375720
1778.347138,1628.453072,1332.370696,-73238.729609
1778.349679,1184.329507,-15692.365970,-83044.751983
1778.352219,0.000000,-5625.565159,-71859.757712
1778.354759,-1480.411884,-7105.977043,-68795.375720
1778.357300,-740.205942,-7105.977043,-70634.004916
1778.359840,592.164754,3256.906145,-75383.797003
1778.362380,2812.782580,21614.013506,-75996.673402
1778.364929,3997.112087,19837.519246,-77528.864398
1778.367478,-592.164754,6809.894666,-73238.729609
1778.370027,888.247130,888.247130,-66343.870127
1778.372575,148.041188,3701.029710,-70327.566716
1778.375124,888.247130,2516.700203,-80593.246390
1778.377673,-296.082377,6661.853478,-76915.987999
1778.380221,2664.741391,7994.224174,-71706.538613
1778.382770,888.247130,-8438.347739,-72319.415011
1778.385319,1480.411884,12583.501014,-69255.033019
1778.387867,592.164754,3404.947333,-74158.044206
1778.390416,-1628.453072,11251.130318,-74158.044206
1778.392965,-1480.411884,4737.318029,-79061.055394
1778.395513,296.082377,9770.718434,-75843.454302
1778.398062,740.205942,6513.812290,-71706.538613
1778.400611,1036.288319,16136.489536,-66803.527426
1778.403160,2516.700203,14804.118840,-72012.976812
1778.405708,740.205942,444.123565,-80593.246390
1778.408257,1332.370696,2516.700203,-74464.482406
1778.410806,-2960.823768,-296.082377,-73085.510509
1778.413354,-1480.411884,-16580.613101,-74464.482406
1778.415903,740.205942,-14656.077652,-71246.881314
1778.418452,2220.617826,-7402.059420,-69561.471218
1778.421000,1628.453072,-1628.453072,-75383.797003
1778.423549,-592.164754,-5181.441594,-78907.836294
1778.426098,-1036.288319,2664.741391,-72012.976812
1778.428646,-740.205942,-444.123565,-68795.375720
1778.431195,444.123565,-4293.194464,-74158.044206
1778.433744,-592.164754,-10510.924376,-75996.673402
1778.436293,3552.988522,9030.512492,-72012.976812
1778.438841,1628.453072,592.164754,-74924.139704
1778.441390,-148.041188,-10362.883188,-75383.797003
1778.443939,2812.782580,2368.659014,-70021.128517
1778.446493,-2368.659014,-21465.972318,-74617.701505
1778.449048,-1480.411884,-148.041188,-69408.252119
1778.451602,3108.864956,-2516.700203,-75537.016103
1778.454157,444.123565,-4589.276840,-79214.274493
1778.456711,1480.411884,-7994.224174,-73698.386908
1778.459266,888.247130,-10658.965565,-68795.375720
1778.461820,-1480.411884,-4293.194464,-69714.690318
1778.464375,888.247130,13471.748144,-75537.016103
1778.466930,-148.041188,22058.137072,-79520.712692
1778.469484,-444.123565,6069.688724,-75690.235202
1778.472039,2812.782580,14063.912898,-65118.117330
1778.474593,592.164754,-3404.947333,-70634.004916
1778.477148,1628.453072,2664.741391,-75230.577904
1778.479702,-2072.576638,-888.247130,-78448.178995
1778.482257,592.164754,12731.542202,-74464.482406
1778.484811,-1776.494261,2516.700203,-74770.920605
1778.487366,888.247130,-1924.535449,-72932.291410
1778.489920,2072.576638,5773.606348,-68182.499322
1778.492475,-1184.329507,5181.441594,-72932.291410
1778.495029,1332.370696,14211.954086,-77682.083497
1778.497584,-1184.329507,9474.636058,-79061.055394
1778.500139,-1036.288319,10362.883188,-73391.948708
1778.502693,-1036.288319,8734.430116,-68488.937521
1778.505248,2072.576638,13915.871710,-69255.033019
1778.507802,1776.494261,7105.977043,-75996.673402
1778.510357,2516.700203,3997.112087,-77222.426198
1778.512911,0.000000,2812.782580,-75077.358804
1778.515466,592.164754,-10510.924376,-73698.386908
1778.518020,592.164754,-12287.418637,-69255.033019
1778.520575,-1628.453072,-18505.148550,-70327.566716
1778.523129,1332.370696,4441.235652,-73698.386908
1778.525684,-444.123565,-5477.523971,-80746.465489
1778.528238,3404.947333,7846.182985,-74311.263306
1778.530793,1332.370696,-5921.647536,-70021.128517
1778.533348,1480.411884,-1628.453072,-68029.280222
1778.535902,740.205942,-1036.288319,-74311.263306
1778.538457,-592.164754,-6217.729913,-77835.302597
1778.541011,0.000000,-1480.411884,-76762.768900
1778.543566,2812.782580,3849.070898,-72166.195912
1778.546120,592.164754,-15692.365970,-72319.415011
1778.548680,2812.782580,-5773.606348,-66190.651027
1778.551240,0.000000,-15100.201217,-72166.195912
1778.553800,1036.288319,-1332.370696,-78601.398095
1778.556360,-148.041188,-2516.700203,-80440.027290
1778.558920,592.164754,-7402.059420,-74004.825107
1778.561480,-1184.329507,-12879.583391,-67722.842023
1778.564040,-444.123565,-8734.430116,-68795.375720
1778.566600,2960.823768,20725.766376,-74617.701505
1778.569159,-296.082377,17764.942608,-81818.999186
1778.571719,-888.247130,18505.148550,-77069.207099
1778.574279,-1036.288319,3997.112087,-68795.375720
1778.576839,-444.123565,-740.205942,-66803.527426
1778.579399,1628.453072,-2072.576638,-74311.263306
1778.581959,1776.494261,7105.977043,-78754.617194
1778.584519,592.164754,5033.400406,-77375.645298
1778.587079,1924.535449,3256.906145,-72625.853210
1778.589639,1036.288319,2664.741391,-70174.347617
1778.592199,-592.164754,10214.842000,-69255.033019
1778.594759,-2664.741391,1184.329507,-75690.235202
1778.597318,2368.659014,14063.912898,-76609.549800
1778.599878,1480.411884,10955.047942,-79673.931792
1778.602438,1184.329507,12435.459826,-73085.510509
1778.604998,2664.741391,10066.800811,-65577.774629
1778.607558,592.164754,7846.182985,-70787.224015
1778.610118,-148.041188,5181.441594,-76456.330700
1778.612678,740.205942,592.164754,-79367.493593
1778.615238,2072.576638,11399.171507,-71859.757712
1778.617798,-592.164754,-19837.519246,-75383.797003
1778.620358,4293.194464,-17320.819043,-68642.156621
1778.622918,1184.329507,-15544.324782,-68488.937521
1778.625477,1184.329507,1776.494261,-75077.358804
1778.628037,-1332.370696,-4441.235652,-83197.971083
1778.630597,1332.370696,4885.359217,-75537.016103
1778.633157,148.041188,-2812.782580,-68182.499322
1778.635717,-148.041188,-4441.235652,-68488.937521
1778.638277,2812.782580,3404.947333,-73391.948708
1778.640837,1184.329507,-6217.729913,-77375.645298
1778.643397,592.164754,3108.864956,-77988.521696
1778.645957,592.164754,-6365.771101,-76303.111601
1778.648517,1036.288319,-9030.512492,-70634.004916
1778.651046,-888.247130,-17468.860231,-67263.184724
1778.653577,-1776.494261,-1776.494261,-69408.252119
1778.656107,-444.123565,-7254.018232,-81052.903688
1778.658638,888.247130,296.082377,-79827.150892
1778.661168,-1184.329507,-7550.100608,-71093.662214
1778.663698,-1036.288319,-9918.759623,-67109.965625
1778.666229,740.205942,-6809.894666,-71400.100414
1778.668759,1184.329507,24574.837274,-75383.797003
1778.671290,1332.370696,22058.137072,-81359.341888
1778.673820,296.082377,16728.654289,-75537.016103
1778.676351,2368.659014,4441.235652,-66650.308326
1778.678881,1480.411884,888.247130,-66956.746525
1778.681412,888.247130,-5773.606348,-75537.016103
1778.683942,-592.164754,6217.729913,-77375.645298
1778.686472,2072.576638,6809.894666,-75996.673402
1778.689003,296.082377,-9178.553681,-74770.920605
1778.691533,3849.070898,20725.766376,-64198.802732
1778.694064,444.123565,2072.576638,-71246.881314
1778.696594,-740.205942,444.123565,-75383.797003
1778.699125,4293.194464,19689.478057,-77222.426198
1778.701655,-1480.411884,7994.224174,-80440.027290
1778.704186,888.247130,16580.613101,-70634.004916
1778.706716,-444.123565,4293.194464,-68335.718422
1778.709246,2812.782580,8882.471304,-69101.813920
1778.711777,1332.370696,-7105.977043,-79673.931792
1778.714307,1036.288319,15840.407159,-77988.521696
1778.716838,-592.164754,-3701.029710,-77375.645298
1778.719368,-296.082377,-12435.459826,-70634.004916
1778.721899,592.164754,-29608.237680,-69408.252119
1778.724429,740.205942,-5773.606348,-68029.280222
1778.726959,-1036.288319,-3849.070898,-78907.836294
1778.729490,1776.494261,6513.812290,-80593.246390
1778.732020,2368.659014,2960.823768,-72932.291410
1778.734551,-1776.494261,-9474.636058,-68795.375720
1778.737081,444.123565,-11547.212695,-68948.594820
1778.739612,-592.164754,2960.823768,-72166.195912
1778.742142,-592.164754,6217.729913,-79520.712692
1778.744673,2516.700203,1480.411884,-78907.836294
1778.747203,444.123565,-13323.706956,-71859.757712
1778.749733,1332.370696,-13323.706956,-63585.926334
1778.752274,-888.247130,-15248.242405,-70480.785816
1778.754815,444.123565,-3701.029710,-79827.150892
1778.757356,2072.576638,3108.864956,-79214.274493
1778.759897,444.123565,-6661.853478,-75230.577904
1778.762437,1480.411884,-14211.954086,-67569.622924
1778.764978,444.123565,-2960.823768,-66190.651027
1778.767519,1924.535449,20133.601622,-75230.577904
1778.770060,740.205942,16728.654289,-84117.285680
1778.772600,-296.082377,22650.301825,-77835.302597
1778.775141,296.082377,7698.141797,-67263.184724
1778.777682,-296.082377,-1924.535449,-68029.280222
1778.780223,-592.164754,-9030.512492,-76609.549800
1778.782763,-444.123565,7994.224174,-76149.892501
1778.785304,0.000000,6217.729913,-78448.178995
1778.787845,-296.082377,14359.995275,-75077.358804
1778.790386,296.082377,-2072.576638,-71400.100414
1778.792926,148.041188,-2220.617826,-66803.527426
1778.795467,1628.453072,8586.388927,-71246.881314
1778.798008,296.082377,9918.759623,-81665.780087
1778.800549,2516.700203,23538.548956,-79061.055394
1778.803089,1036.288319,7994.224174,-71400.100414
1778.805630,-148.041188,9622.677246,-65424.555529
1778.808171,296.082377,-8290.306550,-71859.757712
1778.810712,3701.029710,10658.965565,-73545.167808
1778.813253,296.082377,8290.306550,-78601.398095
1778.815793,1036.288319,-2812.782580,-79214.274493
1778.818334,2664.741391,-18505.148550,-70940.443115
1778.820875,1184.329507,-15840.407159,-63739.145434
1778.823416,1036.288319,-14952.160028,-70021.128517
1778.825956,-1924.535449,-6513.812290,-81052.903688
1778.828497,1924.535449,13915.871710,-77375.645298
1778.831038,1480.411884,1628.453072,-73238.729609
1778.833579,2072.576638,-6661.853478,-67722.842023
1778.836119,0.000000,-8586.388927,-68335.718422
1778.838660,-148.041188,1776.494261,-72166.195912
1778.841201,-2220.617826,-4145.153275,-82585.094684
1778.843742,1776.494261,3108.864956,-79214.274493
1778.846282,-1332.370696,-10658.965565,-73391.948708
1778.848823,-444.123565,-11991.336260,-63126.269035
1778.851364,1924.535449,-8882.471304,-68795.375720
1778.853914,-1184.329507,-8438.347739,-80440.027290
1778.856463,-888.247130,5625.565159,-81512.560987
1778.859013,-1184.329507,-5625.565159,-77375.645298
1778.861562,296.082377,-8438.347739,-68182.499322
1778.864112,-888.247130,-7105.977043,-65118.117330
1778.866662,740.205942,18801.230927,-72625.853210
1778.869211,888.247130,19393.395680,-82431.875585
1778.871761,592.164754,23686.590144,-76762.768900
1778.874310,-444.123565,4885.359217,-69561.471218
1778.876860,-888.247130,-7254.018232,-70940.443115
1778.879410,0.000000,-6513.812290,-72166.195912
1778.881959,444.123565,8290.306550,-73391.948708
1778.884509,296.082377,6957.935855,-79214.274493
1778.887059,1628.453072,15840.407159,-75690.235202
1778.889608,1924.535449,3701.029710,-71400.100414
1778.892158,1036.288319,-6513.812290,-68029.280222
1778.894707,2516.700203,9030.512492,-69561.471218
1778.897257,-1036.288319,13767.830521,-80746.465489
1778.899807,888.247130,22650.301825,-77835.302597
1778.902356,1480.411884,15248.242405,-69408.252119
1778.904906,1332.370696,1776.494261,-67263.184724
1778.907455,2516.700203,-6957.935855,-71400.100414
1778.910005,1480.411884,5477.523971,-74617.701505
1778.912555,-888.247130,10066.800811,-78754.617194
1778.915104,-1036.288319,-9178.553681,-80440.027290
1778.917654,888.247130,-15248.242405,-70634.004916
1778.920203,-592.164754,-20577.725188,-65118.117330
1778.922753,2072.576638,-2516.700203,-71400.100414
1778.925303,-1184.329507,-2516.700203,-82431.875585
1778.927852,1036.288319,11547.212695,-78601.398095
1778.930402,740.205942,0.000000,-73085.510509
1778.932952,-1628.453072,-10955.047942,-68642.156621
1778.935501,-296.082377,0.000000,-65577.774629
1778.938051,-1924.535449,-11103.089130,-75843.454302
1778.940600,296.082377,7254.018232,-77835.302597
1778.943150,2368.659014,740.205942,-79980.369991
1778.945700,1480.411884,-12879.583391,-72166.195912
1778.948249,1036.288319,-7698.141797,-61594.078039
1778.950799,-1036.288319,-20429.683999,-71553.319513
1778.953348,296.082377,-1036.288319,-80593.246390
1778.955904,-148.041188,-148.041188,-81972.218286
1778.958461,1628.453072,2960.823768,-71400.100414
1778.961017,-296.082377,-12583.501014,-67569.622924
1778.963573,5329.482782,8882.471304,-68948.594820
1778.966129,740.205942,14804.118840,-76915.987999
1778.968685,-296.082377,23390.507767,-77375.645298
1778.971241,2072.576638,15100.201217,-74311.263306
1778.973797,888.247130,1036.288319,-71553.319513
1778.976353,1924.535449,-9178.553681,-70634.004916
1778.978909,1776.494261,-3404.947333,-71706.538613
1778.981465,1480.411884,7402.059420,-76149.892501
1778.984021,-1776.494261,1480.411884,-78907.836294
1778.986577,3108.864956,28423.908173,-71246.881314
1778.989133,-2812.782580,-1036.288319,-70634.004916
1778.991689,-3256.906145,-5033.400406,-71400.100414
1778.994245,2368.659014,18061.024985,-74004.825107
1778.996801,148.041188,11695.253884,-82278.656485
1778.999357,1332.370696,24278.754898,-72166.195912
1779.001913,1480.411884,8142.265362,-70787.224015
1779.004469,740.205942,2072.576638,-66190.651027
1779.007025,-1036.288319,-14063.912898,-75996.673402
1779.009581,740.205942,10807.006753,-76303.111601
1779.012137,-444.123565,-2664.741391,-80440.027290
1779.014693,3552.988522,-5477.523971,-73545.167808
1779.017249,444.123565,-20873.807564,-68335.718422
1779.019806,1036.288319,-14359.995275,-68795.375720
1779.022362,-2516.700203,-3256.906145,-76456.330700
1779.024918,-1036.288319,8734.430116,-79827.150892
1779.027474,1480.411884,6217.729913,-76915.987999
1779.030030,1628.453072,-3849.070898,-70787.224015
1779.032586,2516.700203,-15988.448347,-68795.375720
1779.035142,1184.329507,-148.041188,-69867.909418
1779.037698,2664.741391,2072.576638,-77835.302597
1779.040254,-592.164754,1184.329507,-80899.684589
1779.042810,-296.082377,-6513.812290,-71400.100414
1779.045366,-148.041188,-19985.560434,-66497.089226
1779.047922,296.082377,-14508.036463,-70634.004916
1779.050478,2960.823768,-8734.430116,-77069.207099
1779.053034,2220.617826,6513.812290,-77682.083497
1779.055590,1184.329507,-5329.482782,-76456.330700
1779.058152,-740.205942,-4589.276840,-69255.033019
1779.060713,-148.041188,5181.441594,-69101.813920
1779.063274,-1036.288319,15988.448347,-74464.482406
1779.065836,-592.164754,20281.642811,-77069.207099
1779.068397,2072.576638,16136.489536,-73238.729609
1779.070959,2072.576638,4145.153275,-72166.195912
1779.073520,740.205942,-7402.059420,-73851.606007
1779.076081,296.082377,-2812.782580,-71553.319513
1779.078643,-1924.535449,4145.153275,-73545.167808
1779.081204,0.000000,18505.148550,-75996.673402
1779.083766,-1036.288319,-3256.906145,-79367.493593
1779.086327,1776.494261,1332.370696,-69714.690318
1779.088888,3256.906145,6957.935855,-65118.117330
1779.091450,-888.247130,6809.894666,-78448.178995
1779.094011,592.164754,21317.931130,-78907.836294
1779.096573,-888.247130,11843.295072,-76609.549800
1779.099134,-740.205942,15544.324782,-67263.184724
1779.101696,1332.370696,-6661.853478,-71553.319513
1779.104257,4737.318029,4441.235652,-71093.662214
1779.106818,-444.123565,4293.194464,-75230.577904
1779.109380,888.247130,-5329.482782,-80593.246390
1779.111941,2072.576638,-12583.501014,-75383.797003
1779.114503,-592.164754,-17616.901420,-66190.651027
1779.117064,-296.082377,-6957.935855,-69255.033019
1779.119625,-1184.329507,-9474.636058,-79980.369991
1779.122187,2812.782580,8586.388927,-77835.302597
1779.124748,3701.029710,8882.471304,-73085.510509
1779.127310,2812.782580,-3256.906145,-71706.538613
1779.129871,148.041188,-17764.942608,-71859.757712
1779.132432,-740.205942,2368.659014,-68795.375720
1779.134994,-1332.370696,7846.182985,-75383.797003
1779.137555,-2220.617826,5773.606348,-80746.465489
1779.140117,2072.576638,-9474.636058,-72166.195912
1779.142678,888.247130,-17468.860231,-65730.993728
1779.145239,740.205942,-10807.006753,-70480.785816
1779.147801,1628.453072,-7402.059420,-79367.493593
1779.150362,-1776.494261,888.247130,-77988.521696
1779.152924,-2072.576638,-3997.112087,-74617.701505
1779.155485,-1332.370696,-4293.194464,-71093.662214
1779.158047,2516.700203,12583.501014,-69101.813920
1779.160612,2220.617826,18801.230927,-74924.139704
1779.163177,-740.205942,18653.189738,-76609.549800
1779.165743,-148.041188,7105.977043,-75230.577904
1779.168308,1480.411884,296.082377,-70940.443115
1779.170873,2072.576638,-2516.700203,-71553.319513
1779.173438,740.205942,-444.123565,-73391.948708
1779.176004,1480.411884,-1924.535449,-75843.454302
1779.178569,2368.659014,20577.725188,-73851.606007
1779.181134,-1332.370696,8438.347739,-75843.454302
1779.183700,-444.123565,-444.123565,-72012.976812
1779.186265,-148.041188,3849.070898,-69101.813920
1779.188830,1184.329507,13619.789333,-78448.178995
1779.191396,1036.288319,13027.624579,-80286.808190
1779.193961,2812.782580,20429.683999,-69101.813920
1779.196526,1036.288319,4885.359217,-67569.622924
1779.199092,740.205942,-7698.141797,-73698.386908
1779.201657,-1628.453072,-1924.535449,-75996.673402
1779.204222,-740.205942,4589.276840,-75230.577904
1779.206788,-1036.288319,-7402.059420,-75690.235202
1779.209353,2368.659014,-20281.642811,-73238.729609
1779.211918,3108.864956,-12139.377449,-66650.308326
1779.214484,-3552.988522,-8290.306550,-73851.606007
1779.217049,-1628.453072,5033.400406,-79367.493593
1779.219614,0.000000,4145.153275,-77682.083497
1779.222180,2220.617826,5625.565159,-70021.128517
1779.224745,592.164754,2664.741391,-68335.718422
1779.227310,740.205942,-25315.043216,-74311.263306
1779.229876,2960.823768,7994.224174,-70174.347617
1779.232441,592.164754,6069.688724,-77069.207099
1779.235006,148.041188,-7105.977043,-81359.341888
1779.237572,2072.576638,-7254.018232,-64964.898230
1779.240137,1036.288319,-16728.654289,-65730.993728
1779.242702,444.123565,-7402.059420,-75996.673402
1779.245268,1924.535449,-7105.977043,-82585.094684
1779.247833,1036.288319,5921.647536,-72472.634111
1779.250398,-1036.288319,-4737.318029,-69255.033019
1779.252964,2960.823768,11103.089130,-72932.291410
1779.255529,296.082377,10955.047942,-75383.797003
1779.258094,-1776.494261,21910.095883,-71859.757712
1779.260660,1628.453072,13027.624579,-75077.358804
1779.263228,2960.823768,1184.329507,-77069.207099
1779.265797,1332.370696,-2220.617826,-70787.224015
1779.268366,888.247130,1628.453072,-69408.252119
1779.270935,592.164754,2664.741391,-75383.797003
1779.273504,-2368.659014,-13915.871710,-81972.218286
1779.276073,1628.453072,20281.642811,-69561.471218
1779.278642,1332.370696,12879.583391,-72166.195912
1779.281211,-3552.988522,-5773.606348,-73851.606007
1779.283780,888.247130,21910.095883,-73085.510509
1779.286348,2516.700203,7846.182985,-82278.656485
1779.288917,-2664.741391,17468.860231,-76915.987999
1779.291486,-592.164754,10214.842000,-67416.403824
1779.294055,2960.823768,1924.535449,-68335.718422
1779.296624,-1628.453072,-4145.153275,-75077.358804
1779.299193,-296.082377,-3701.029710,-78601.398095
1779.301762,444.123565,-444.123565,-75383.797003
1779.304331,2812.782580,-12583.501014,-71859.757712
1779.306900,1628.453072,-15100.201217,-70787.224015
1779.309468,-1924.535449,-18653.189738,-74311.263306
1779.312037,1332.370696,10807.006753,-72779.072310
1779.314606,0.000000,2368.659014,-78754.617194
1779.317175,2960.823768,5477.523971,-74617.701505
1779.319744,1332.370696,-13323.706956,-70174.347617
1779.322313,2516.700203,3849.070898,-67109.965625
1779.324882,-148.041188,-10214.842000,-75996.673402
1779.327451,148.041188,5033.400406,-77682.083497
1779.330020,-1776.494261,-7105.977043,-77222.426198
1779.332588,296.082377,-19245.354492,-70634.004916
1779.335157,3108.864956,-10362.883188,-67263.184724
1779.337726,444.123565,-14952.160028,-73698.386908
1779.340295,592.164754,1332.370696,-77222.426198
1779.342864,-296.082377,-7698.141797,-79061.055394
1779.345433,-2072.576638,3997.112087,-69255.033019
1779.348002,888.247130,6661.853478,-71093.662214
1779.350571,1036.288319,16580.613101,-73851.606007
1779.353140,-1332.370696,15396.283594,-75537.016103
1779.355708,1332.370696,17468.860231,-72166.195912
1779.358277,1036.288319,4885.359217,-76456.330700
1779.360846,592.164754,-6365.771101,-75996.673402
1779.363415,-444.123565,-2516.700203,-70480.785816
1779.365987,148.041188,-1924.535449,-71706.538613
1779.368559,296.082377,7698.141797,-76303.111601
1779.371130,444.123565,11103.089130,-76609.549800
1779.373702,2960.823768,888.247130,-71553.319513
1779.376274,3256.906145,8882.471304,-69714.690318
1779.378846,1332.370696,7846.182985,-74770.920605
1779.381417,-296.082377,20577.725188,-77069.207099
1779.383989,1924.535449,15840.407159,-73545.167808
1779.386561,1332.370696,8734.430116,-70634.004916
1779.389132,1480.411884,-4441.235652,-70940.443115
1779.391704,2664.741391,2960.823768,-72932.291410
1779.394276,148.041188,1480.411884,-76609.549800
1779.396848,-296.082377,-10214.842000,-78448.178995
1779.399419,740.205942,-16284.530724,-72166.195912
1779.401991,444.123565,-20429.683999,-70021.128517
1779.404563,148.041188,-7994.224174,-73851.606007
1779.407135,1480.411884,3849.070898,-75690.235202
1779.409706,1036.288319,4589.276840,-76149.892501
1779.412278,3256.906145,5181.441594,-73698.386908
1779.414850,-296.082377,-10807.006753,-72779.072310
1779.417421,1924.535449,3849.070898,-68948.594820
1779.419993,-1924.535449,-4441.235652,-73391.948708
1779.422565,-740.205942,296.082377,-78601.398095
1779.425137,888.247130,-7402.059420,-77528.864398
1779.427708,-740.205942,-20281.642811,-69714.690318
1779.430280,740.205942,-4737.318029,-64811.679131
1779.432852,444.123565,-13027.624579,-77988.521696
1779.435424,-1776.494261,-5033.400406,-79061.055394
1779.437995,-1184.329507,-3552.988522,-75077.358804
1779.440567,-888.247130,5773.606348,-70021.128517
1779.443139,1480.411884,13471.748144,-73238.729609
1779.445711,4441.235652,12731.542202,-74464.482406
1779.448282,2220.617826,20873.807564,-70480.785816
1779.450854,1924.535449,9178.553681,-74464.482406
1779.453426,592.164754,1924.535449,-77835.302597
1779.455997,-296.082377,-2516.700203,-72625.853210
1779.458569,592.164754,296.082377,-69714.690318
1779.461141,148.041188,-7994.224174,-75077.358804
1779.463713,3108.864956,9770.718434,-74311.263306
1779.466284,1480.411884,18653.189738,-72319.415011
1779.468858,148.041188,1628.453072,-74311.263306
1779.471431,444.123565,5477.523971,-72012.976812
1779.474004,-148.041188,14211.954086,-73085.510509
1779.476577,592.164754,11843.295072,-79214.274493
1779.479150,1776.494261,15248.242405,-71706.538613
1779.481724,1628.453072,7254.018232,-68029.280222
1779.484297,2072.576638,148.041188,-71246.881314
1779.486870,1036.288319,148.041188,-76609.549800
1779.489443,-1184.329507,-9030.512492,-77682.083497
1779.492016,148.041188,-7402.059420,-72319.415011
1779.494590,-296.082377,-21614.013506,-73238.729609
1779.497163,888.247130,-12435.459826,-72932.291410
1779.499736,1036.288319,-4589.276840,-73698.386908
1779.502309,-148.041188,7402.059420,-74617.701505
1779.504882,444.123565,4441.235652,-75843.454302
1779.507456,592.164754,2516.700203,-72166.195912
1779.510029,-148.041188,-10955.047942,-71093.662214
1779.512602,740.205942,-592.164754,-70021.128517
1779.515175,-740.205942,-4589.276840,-76609.549800
1779.517748,2812.782580,444.123565,-77835.302597
1779.520322,1480.411884,-14656.077652,-75690.235202
1779.522895,1628.453072,-13915.871710,-67109.965625
1779.525468,592.164754,-11843.295072,-71246.881314
1779.528041,-2516.700203,-8882.471304,-79061.055394
1779.530614,444.123565,-6365.771101,-78294.959896
1779.533188,-740.205942,5033.400406,-70480.785816
1779.535761,4145.153275,12287.418637,-70940.443115
1779.538334,2072.576638,12287.418637,-74770.920605
1779.540907,1184.329507,18653.189738,-72779.072310
1779.543480,740.205942,16580.613101,-70940.443115
1779.546054,-1036.288319,10955.047942,-74770.920605
1779.548627,148.041188,-4737.318029,-77069.207099
1779.551200,1480.411884,-740.205942,-69408.252119
1779.553773,2664.741391,5921.647536,-69867.909418
1779.556346,296.082377,-3256.906145,-76915.987999
1779.558919,1332.370696,1332.370696,-76915.987999
1779.561493,3256.906145,19097.313304,-70021.128517
1779.564066,-5181.441594,4885.359217,-72166.195912
1779.566639,-1036.288319,18949.272115,-72779.072310
1779.569212,740.205942,2072.576638,-81512.560987
1779.571787,1184.329507,12139.377449,-73545.167808
1779.574362,1776.494261,14359.995275,-66190.651027
1779.576936,3552.988522,-1480.411884,-72932.291410
1779.579511,1036.288319,3701.029710,-75383.797003
1779.582086,-1628.453072,-11103.089130,-75690.235202
1779.584661,2220.617826,-7550.100608,-72932.291410
1779.587235,1480.411884,-19689.478057,-72319.415011
1779.589810,2220.617826,-11251.130318,-72012.976812
1779.592385,-1480.411884,-9474.636058,-75690.235202
1779.594960,592.164754,4885.359217,-75230.577904
1779.597534,1628.453072,5181.441594,-73085.510509
1779.600109,592.164754,-6217.729913,-71246.881314
1779.602684,3701.029710,6661.853478,-67876.061123
1779.605259,-296.082377,-11103.089130,-75077.358804
1779.607833,888.247130,5033.400406,-75383.797003
1779.610408,-444.123565,-4145.153275,-76456.330700
1779.612983,296.082377,-11399.171507,-74770.920605
1779.615557,0.000000,-17764.942608,-69255.033019
1779.618132,148.041188,-10807.006753,-69867.909418
1779.620707,296.082377,-8586.388927,-78294.959896
1779.623282,740.205942,-6661.853478,-77528.864398
1779.625856,-592.164754,3404.947333,-70021.128517
1779.628431,296.082377,17172.777854,-71553.319513
1779.631006,1184.329507,13027.624579,-76915.987999
1779.633581,-1332.370696,17468.860231,-73851.606007
1779.636155,1480.411884,19393.395680,-69101.813920
1779.638730,296.082377,7105.977043,-75690.235202
1779.641305,2072.576638,-6957.935855,-78601.398095
1779.643879,1776.494261,0.000000,-70480.785816
1779.646454,-296.082377,8142.265362,-71400.100414
1779.649029,-2664.741391,-10362.883188,-81052.903688
1779.651604,1628.453072,21021.848753,-71553.319513
1779.654178,0.000000,1628.453072,-72779.072310
1779.656753,1628.453072,13027.624579,-71093.662214
1779.659328,2516.700203,7402.059420,-75843.454302
1779.661903,1184.329507,17320.819043,-76149.892501
1779.664477,1332.370696,13175.665768,-74464.482406
1779.667052,740.205942,5329.482782,-70940.443115
1779.669627,1332.370696,7550.100608,-68642.156621
1779.672202,2072.576638,-2960.823768,-76303.111601
1779.674775,1924.535449,-6661.853478,-77528.864398
1779.677350,2220.617826,-13175.665768,-72932.291410
1779.679925,2220.617826,-16284.530724,-69101.813920
1779.682500,740.205942,-15544.324782,-73698.386908
1779.685075,-1036.288319,-11991.336260,-77069.207099
1779.687650,-888.247130,8734.430116,-74311.263306
1779.690225,296.082377,1332.370696,-75230.577904
1779.692800,888.247130,2516.700203,-72166.195912
1779.695375,2812.782580,5773.606348,-68948.594820
1779.697950,148.041188,-10362.883188,-74770.920605
1779.700525,-148.041188,592.164754,-76609.549800
1779.703100,296.082377,-5181.441594,-78448.178995
1779.705675,-1036.288319,-16876.695478,-72166.195912
1779.708250,2072.576638,-6661.853478,-66956.746525
1779.710824,-148.041188,-18209.066173,-73085.510509
1779.713399,296.082377,-6217.729913,-77375.645298
1779.715974,2220.617826,-7105.977043,-76303.111601
1779.718549,-592.164754,11843.295072,-70327.566716
1779.721124,-740.205942,13915.871710,-74004.825107
1779.723699,2516.700203,9178.553681,-76609.549800
1779.726274,444.123565,23094.425390,-69101.813920
